File: exp data/EIS mpt files/single type/RM_stacked second run S12_1_C05.mpt
EC-Lab ASCII FILE
Nb header lines : 66

Potentio Electrochemical Impedance Spectroscopy

Run on channel : 5 (SN 13220)
User :
CE vs. WE compliance from -10 V to 10 V
Electrode connection : standard
Potential control : Ewe
Ewe ctrl range : min = -1.00 V, max = 1.00 V
Safety Limits :
	Do not start on E overload
Acquisition started on : 09/05/2018 13:40:50.000
Loaded Setting File : NONE
Saved on :
	File : RM_stacked second run S12_1_C05.mpr
	Directory : D:\Robert\Stacked cells\Second run 3% and 12% PVDF electrodes 12%compressed\
	Host : 10.5.5.6
Device : VMP3 (SN 0628)
Address : 10.5.5.5
EC-Lab for windows v11.17 (software)
Internet server v11.16 (firmware)
Command interpretor v11.16 (firmware)
Electrode material :
Initial state :
Electrolyte :
Comments :
Electrode surface area : 0.001 cm²
Characteristic mass : 0.001 g
Equivalent Weight : 0.000 g/eq.
Density : 0.000 g/cm3
Volume (V) : 0.000 m³
Text export
   Mode : Standard
   Time format : Elapsed
Cycle Definition : Charge/Discharge alternance
Mode                Single sine
E (V)               0.0000
vs.                 Eoc
tE (h:m:s)          0:00:3.0000
record              1
dI                  0.000
unit dI             mA
dt (s)              60.000
fi                  200.000
unit fi             kHz
ff                  10.000
unit ff             mHz
Nd                  8
Points              per decade
spacing             Logarithmic
Va (mV)             20.0
pw                  3.00
Na                  5
corr                0
E range min (V)     -1.000
E range max (V)     1.000
I Range             Auto
Bandwidth           5
nc cycles           0
goto Ns'            0
nr cycles           0
inc. cycle          0

freq/Hz	Re(Z)/Ohm	-Im(Z)/Ohm	|Z|/Ohm	Phase(Z)/deg	time/s	<Ewe>/V	<I>/mA	Cs/µF	Cp/µF	cycle number	I Range	|Ewe|/V	|I|/A	Re(Y)/Ohm-1	Im(Y)/Ohm-1	|Y|/Ohm-1	Phase(Y)/deg	Re(C)/nF	Im(C)/nF	|C|/nF	Phase(C)/deg	Re(M)	Im(M)	|M|	Phase(M)/deg	Re(Permittivity)	Im(Permittivity)	|Permittivity|	Phase(Permittivity)/deg	Re(Resistivity)/Ohm.cm	Im(Resistivity)/Ohm.cm	|Resistivity|/Ohm.cm	Phase(Resistivity)/deg	Re(Conductivity)/mS/cm	Im(Conductivity)/mS/cm	|Conductivity|/mS/cm	Phase(Conductivity)/deg	Tan(Delta)	Loss Angle(Delta)/deg
200019	147.156	-1.52589	147.163	0.59409	09/05/2018 13:40:55.3321	0.00569994	0.00458816	-0.521466	-5.60621e-05	1	11	0.0184472	0.000125351	0.0067948	-7.04566e-05	0.00679516	-0.59409	-0.0560624	5.4066	5.40689	-90.5941	0.0000000E+000	0.0000000E+000	0.0000000E+000	90.5941	0.0000000E+000	0.0000000E+000	0.0000000E+000	-90.5941	0.0000000E+000	0.0000000E+000	0.0000000E+000	0.59409	0.0000000E+000	0.0000000E+000	0.0000000E+000	-0.59409	96.4395	89.4059
149678	146.573	-0.949619	146.576	0.371203	09/05/2018 13:40:56.3961	0.00534594	0.0019812	-1.11973	-4.69986e-05	1	11	0.0205702	0.000140338	0.00682225	-4.42e-05	0.00682239	-0.371203	-0.0469983	7.25422	7.25437	-90.3712	0.0000000E+000	0.0000000E+000	0.0000000E+000	90.3712	0.0000000E+000	0.0000000E+000	0.0000000E+000	-90.3712	0.0000000E+000	0.0000000E+000	0.0000000E+000	0.371203	0.0000000E+000	0.0000000E+000	0.0000000E+000	-0.371203	154.349	89.6288
112012	146.239	-0.534886	146.24	0.209565	09/05/2018 13:40:57.4611	0.0053635	0.0020545	-2.65641	-3.55373e-05	1	11	0.0207605	0.000141962	0.00683802	-2.50108e-05	0.00683807	-0.209565	-0.0355372	9.71599	9.71606	-90.2096	0.0000000E+000	0.0000000E+000	0.0000000E+000	90.2096	0.0000000E+000	0.0000000E+000	0.0000000E+000	-90.2096	0.0000000E+000	0.0000000E+000	0.0000000E+000	0.209565	0.0000000E+000	0.0000000E+000	0.0000000E+000	-0.209565	273.402	89.7904
83828.1	146.022	-0.064683	146.022	0.0253802	09/05/2018 13:40:58.5261	0.00536041	0.00204741	-29.3522	-5.75953e-06	1	11	0.0206937	0.000141717	0.0068483	-3.03359e-06	0.0068483	-0.0253802	-0.00576015	13.0021	13.0021	-90.0254	0.0000000E+000	0.0000000E+000	0.0000000E+000	90.0254	0.0000000E+000	0.0000000E+000	0.0000000E+000	-90.0254	0.0000000E+000	0.0000000E+000	0.0000000E+000	0.0253802	0.0000000E+000	0.0000000E+000	0.0000000E+000	-0.0253802	2257.49	89.9746
62734.4	146.016	0.295673	146.016	-0.11602	09/05/2018 13:40:59.5911	0.00537384	0.00205561	8.58033	3.51822e-05	1	11	0.0206068	0.000141127	0.00684854	1.38678e-05	0.00684856	0.11602	0.0351823	17.3745	17.3746	-89.884	0.0000000E+000	0.0000000E+000	0.0000000E+000	89.884	0.0000000E+000	0.0000000E+000	0.0000000E+000	-89.884	0.0000000E+000	0.0000000E+000	0.0000000E+000	-0.11602	0.0000000E+000	0.0000000E+000	0.0000000E+000	0.11602	493.843	89.884
46953.1	146.02	0.580587	146.021	-0.227812	09/05/2018 13:41:00.6541	0.0053778	0.00199519	5.83833	9.22985e-05	1	11	0.0205137	0.000140485	0.00684829	2.72294e-05	0.00684834	0.227812	0.0922991	23.2134	23.2135	-89.7722	0.0000000E+000	0.0000000E+000	0.0000000E+000	89.7722	0.0000000E+000	0.0000000E+000	0.0000000E+000	-89.7722	0.0000000E+000	0.0000000E+000	0.0000000E+000	-0.227812	0.0000000E+000	0.0000000E+000	0.0000000E+000	0.227812	251.503	89.7722
35136.7	146.174	0.885859	146.177	-0.347225	09/05/2018 13:41:01.7191	0.00537883	0.00198027	5.11322	0.000187787	1	11	0.0204138	0.000139652	0.0068409	4.14579e-05	0.00684103	0.347225	0.187789	30.9865	30.9871	-89.6528	0.0000000E+000	0.0000000E+000	0.0000000E+000	89.6528	0.0000000E+000	0.0000000E+000	0.0000000E+000	-89.6528	0.0000000E+000	0.0000000E+000	0.0000000E+000	-0.347225	0.0000000E+000	0.0000000E+000	0.0000000E+000	0.347225	165.008	89.6528
26298.8	146.305	1.10282	146.309	-0.431879	09/05/2018 13:41:02.7841	0.00537935	0.00203323	5.48754	0.000311781	1	11	0.0202227	0.000138219	0.00683467	5.15188e-05	0.00683486	0.431879	0.311779	41.362	41.3632	-89.5681	0.0000000E+000	0.0000000E+000	0.0000000E+000	89.5681	0.0000000E+000	0.0000000E+000	0.0000000E+000	-89.5681	0.0000000E+000	0.0000000E+000	0.0000000E+000	-0.431879	0.0000000E+000	0.0000000E+000	0.0000000E+000	0.431879	132.664	89.5681
19677.7	146.517	1.37987	146.523	-0.539585	09/05/2018 13:41:03.7231	0.0053846	0.00202839	5.86148	0.000519839	1	11	0.0218627	0.000149209	0.00682454	6.42723e-05	0.00682485	0.539585	0.519835	55.1974	55.1998	-89.4604	0.0000000E+000	0.0000000E+000	0.0000000E+000	89.4604	0.0000000E+000	0.0000000E+000	0.0000000E+000	-89.4604	0.0000000E+000	0.0000000E+000	0.0000000E+000	-0.539585	0.0000000E+000	0.0000000E+000	0.0000000E+000	0.539585	106.182	89.4604
14726.6	146.735	1.69378	146.745	-0.661344	09/05/2018 13:41:04.7881	0.00538324	0.0019909	6.38059	0.000850064	1	11	0.0203978	0.000139002	0.0068141	7.86562e-05	0.00681455	0.661344	0.850067	73.6423	73.6472	-89.3387	0.0000000E+000	0.0000000E+000	0.0000000E+000	89.3387	0.0000000E+000	0.0000000E+000	0.0000000E+000	-89.3387	0.0000000E+000	0.0000000E+000	0.0000000E+000	-0.661344	0.0000000E+000	0.0000000E+000	0.0000000E+000	0.661344	86.6315	89.3387
11025.4	147.014	1.97698	147.027	-0.770442	09/05/2018 13:41:05.7261	0.00538911	0.00199537	7.30171	0.00132018	1	11	0.0210133	0.000142921	0.00680085	9.14548e-05	0.00680146	0.770442	1.32017	98.1724	98.1813	-89.2296	0.0000000E+000	0.0000000E+000	0.0000000E+000	89.2296	0.0000000E+000	0.0000000E+000	0.0000000E+000	-89.2296	0.0000000E+000	0.0000000E+000	0.0000000E+000	-0.770442	0.0000000E+000	0.0000000E+000	0.0000000E+000	0.770442	74.3629	89.2296
8325.19	147.358	2.30299	147.376	-0.895375	09/05/2018 13:41:06.8186	0.00539496	0.00205804	8.30106	0.00202704	1	11	0.0213774	0.000145053	0.00678452	0.000106032	0.00678535	0.895375	2.02705	129.702	129.717	-89.1046	0.0000000E+000	0.0000000E+000	0.0000000E+000	89.1046	0.0000000E+000	0.0000000E+000	0.0000000E+000	-89.1046	0.0000000E+000	0.0000000E+000	0.0000000E+000	-0.895375	0.0000000E+000	0.0000000E+000	0.0000000E+000	0.895375	63.9856	89.1046
6195.49	147.691	2.7112	147.715	-1.05168	09/05/2018 13:41:08.2338	0.00538958	0.00198549	9.47507	0.00319194	1	11	0.0215996	0.000146225	0.00676863	0.000124254	0.00676977	1.05168	3.19195	173.878	173.908	-88.9483	0.0000000E+000	0.0000000E+000	0.0000000E+000	88.9483	0.0000000E+000	0.0000000E+000	0.0000000E+000	-88.9483	0.0000000E+000	0.0000000E+000	0.0000000E+000	-1.05168	0.0000000E+000	0.0000000E+000	0.0000000E+000	1.05168	54.4742	88.9483
4621.48	148.16	3.14127	148.193	-1.2146	09/05/2018 13:41:09.9227	0.00538812	0.0019687	10.9631	0.00492594	1	11	0.0217242	0.000146594	0.00674645	0.000143038	0.00674796	1.2146	4.92595	232.335	232.387	-88.7854	0.0000000E+000	0.0000000E+000	0.0000000E+000	88.7854	0.0000000E+000	0.0000000E+000	0.0000000E+000	-88.7854	0.0000000E+000	0.0000000E+000	0.0000000E+000	-1.2146	0.0000000E+000	0.0000000E+000	0.0000000E+000	1.2146	47.1656	88.7854
3456.11	148.654	3.602	148.698	-1.38805	09/05/2018 13:41:11.6097	0.00539049	0.00204685	12.7847	0.00750183	1	11	0.0217933	0.000146561	0.00672307	0.000162905	0.00672504	1.38805	7.50183	309.6	309.691	-88.612	0.0000000E+000	0.0000000E+000	0.0000000E+000	88.612	0.0000000E+000	0.0000000E+000	0.0000000E+000	-88.612	0.0000000E+000	0.0000000E+000	0.0000000E+000	-1.38805	0.0000000E+000	0.0000000E+000	0.0000000E+000	1.38805	41.2699	88.612
2585.83	149.162	4.17288	149.22	-1.60246	09/05/2018 13:41:13.2977	0.00540075	0.00204163	14.7497	0.0115346	1	11	0.021827	0.000146273	0.00669888	0.000187405	0.0067015	1.60246	11.5346	412.309	412.47	-88.3975	0.0000000E+000	0.0000000E+000	0.0000000E+000	88.3975	0.0000000E+000	0.0000000E+000	0.0000000E+000	-88.3975	0.0000000E+000	0.0000000E+000	0.0000000E+000	-1.60246	0.0000000E+000	0.0000000E+000	0.0000000E+000	1.60246	35.7456	88.3975
1935.62	149.858	4.81024	149.936	-1.83848	09/05/2018 13:41:14.9857	0.00539107	0.00201048	17.0936	0.0175937	1	11	0.021851	0.000145736	0.0066661	0.000213972	0.00666953	1.83848	17.5937	548.115	548.397	-88.1615	0.0000000E+000	0.0000000E+000	0.0000000E+000	88.1615	0.0000000E+000	0.0000000E+000	0.0000000E+000	-88.1615	0.0000000E+000	0.0000000E+000	0.0000000E+000	-1.83848	0.0000000E+000	0.0000000E+000	0.0000000E+000	1.83848	31.154	88.1615
1448.61	150.597	5.57277	150.7	-2.11924	09/05/2018 13:41:16.6749	0.00539289	0.00202223	19.715	0.0269597	1	11	0.0218595	0.000145053	0.00663118	0.000245384	0.00663572	2.11924	26.9597	728.55	729.049	-87.8808	0.0000000E+000	0.0000000E+000	0.0000000E+000	87.8808	0.0000000E+000	0.0000000E+000	0.0000000E+000	-87.8808	0.0000000E+000	0.0000000E+000	0.0000000E+000	-2.11924	0.0000000E+000	0.0000000E+000	0.0000000E+000	2.11924	27.0236	87.8808
1083.96	151.45	6.47641	151.588	-2.44863	09/05/2018 13:41:18.3629	0.00539367	0.00199071	22.6711	0.041382	1	11	0.0218615	0.000144216	0.0065908	0.000281841	0.00659682	2.44863	41.3819	967.71	968.595	-87.5514	0.0000000E+000	0.0000000E+000	0.0000000E+000	87.5514	0.0000000E+000	0.0000000E+000	0.0000000E+000	-87.5514	0.0000000E+000	0.0000000E+000	0.0000000E+000	-2.44863	0.0000000E+000	0.0000000E+000	0.0000000E+000	2.44863	23.3848	87.5514
811.298	152.446	7.5033	152.63	-2.81779	09/05/2018 13:41:20.0494	0.00538758	0.00193345	26.145	0.0631846	1	11	0.0218669	0.000143267	0.00654386	0.000322086	0.00655178	2.81779	63.1846	1283.73	1285.29	-87.1822	0.0000000E+000	0.0000000E+000	0.0000000E+000	87.1822	0.0000000E+000	0.0000000E+000	0.0000000E+000	-87.1822	0.0000000E+000	0.0000000E+000	0.0000000E+000	-2.81779	0.0000000E+000	0.0000000E+000	0.0000000E+000	2.81779	20.3172	87.1822
607.527	153.563	8.67548	153.808	-3.23347	09/05/2018 13:41:21.7289	0.00538865	0.00198605	30.1968	0.096071	1	11	0.0218664	0.000142167	0.00649128	0.000366723	0.00650163	3.23347	96.0709	1700.53	1703.24	-86.7665	0.0000000E+000	0.0000000E+000	0.0000000E+000	86.7665	0.0000000E+000	0.0000000E+000	0.0000000E+000	-86.7665	0.0000000E+000	0.0000000E+000	0.0000000E+000	-3.23347	0.0000000E+000	0.0000000E+000	0.0000000E+000	3.23347	17.7008	86.7665
454.564	154.792	10.1316	155.124	-3.74483	09/05/2018 13:41:23.4180	0.00538416	0.00193345	34.5579	0.147417	1	11	0.0218657	0.000140957	0.0064327	0.000421038	0.00644647	3.74483	147.417	2252.26	2257.08	-86.2552	0.0000000E+000	0.0000000E+000	0.0000000E+000	86.2552	0.0000000E+000	0.0000000E+000	0.0000000E+000	-86.2552	0.0000000E+000	0.0000000E+000	0.0000000E+000	-3.74483	0.0000000E+000	0.0000000E+000	0.0000000E+000	3.74483	15.2782	86.2552
340.109	156.297	11.7696	156.739	-4.30641	09/05/2018 13:41:25.1057	0.00538745	0.00194241	39.7595	0.224186	1	11	0.0218679	0.000139518	0.00636201	0.000479078	0.00638003	4.30641	224.186	2977.12	2985.55	-85.6936	0.0000000E+000	0.0000000E+000	0.0000000E+000	85.6936	0.0000000E+000	0.0000000E+000	0.0000000E+000	-85.6936	0.0000000E+000	0.0000000E+000	0.0000000E+000	-4.30641	0.0000000E+000	0.0000000E+000	0.0000000E+000	4.30641	13.2797	85.6936
254.43	158.039	13.7047	158.632	-4.95614	09/05/2018 13:41:26.7962	0.00538548	0.00200619	45.6439	0.340675	1	11	0.0218649	0.000137834	0.00628033	0.000544613	0.0063039	4.95614	340.675	3928.57	3943.31	-85.0439	0.0000000E+000	0.0000000E+000	0.0000000E+000	85.0439	0.0000000E+000	0.0000000E+000	0.0000000E+000	-85.0439	0.0000000E+000	0.0000000E+000	0.0000000E+000	-4.95614	0.0000000E+000	0.0000000E+000	0.0000000E+000	4.95614	11.5317	85.0439
190.549	160.024	16.0198	160.824	-5.71679	09/05/2018 13:41:28.4782	0.00538745	0.0019618	52.1382	0.517336	1	11	0.0218644	0.000135953	0.00618707	0.000619383	0.00621799	5.71679	517.336	5167.72	5193.55	-84.2832	0.0000000E+000	0.0000000E+000	0.0000000E+000	84.2832	0.0000000E+000	0.0000000E+000	0.0000000E+000	-84.2832	0.0000000E+000	0.0000000E+000	0.0000000E+000	-5.71679	0.0000000E+000	0.0000000E+000	0.0000000E+000	5.71679	9.98909	84.2832
142.492	162.379	18.7817	163.462	-6.59783	09/05/2018 13:41:30.1923	0.0053917	0.0019633	59.4695	0.78511	1	11	0.0218685	0.000133783	0.00607711	0.000702912	0.00611763	6.59783	785.109	6787.76	6833.01	-83.4022	0.0000000E+000	0.0000000E+000	0.0000000E+000	83.4022	0.0000000E+000	0.0000000E+000	0.0000000E+000	-83.4022	0.0000000E+000	0.0000000E+000	0.0000000E+000	-6.59783	0.0000000E+000	0.0000000E+000	0.0000000E+000	6.59783	8.64562	83.4022
106.673	165.132	21.9944	166.59	-7.58675	09/05/2018 13:41:31.8546	0.00538919	0.00191611	67.8351	1.18244	1	11	0.0218651	0.000131251	0.00595021	0.000792527	0.00600275	7.58675	1182.45	8877.67	8956.07	-82.4132	0.0000000E+000	0.0000000E+000	0.0000000E+000	82.4132	0.0000000E+000	0.0000000E+000	0.0000000E+000	-82.4132	0.0000000E+000	0.0000000E+000	0.0000000E+000	-7.58675	0.0000000E+000	0.0000000E+000	0.0000000E+000	7.58675	7.50789	82.4132
79.8212	168.351	25.7765	170.312	-8.70508	09/05/2018 13:41:33.5452	0.00539353	0.00195248	77.353	1.77188	1	11	0.0218666	0.000128391	0.00580392	0.000888651	0.00587156	8.70508	1771.88	11572.4	11707.3	-81.2949	0.0000000E+000	0.0000000E+000	0.0000000E+000	81.2949	0.0000000E+000	0.0000000E+000	0.0000000E+000	-81.2949	0.0000000E+000	0.0000000E+000	0.0000000E+000	-8.70508	0.0000000E+000	0.0000000E+000	0.0000000E+000	8.70508	6.53116	81.2949
59.7895	172.096	30.2987	174.743	-9.98501	09/05/2018 13:41:35.2395	0.00539362	0.00192879	87.8559	2.64132	1	11	0.0218636	0.000125119	0.00563602	0.000992262	0.0057227	9.98501	2641.32	15002.6	15233.4	-80.015	0.0000000E+000	0.0000000E+000	0.0000000E+000	80.015	0.0000000E+000	0.0000000E+000	0.0000000E+000	-80.015	0.0000000E+000	0.0000000E+000	0.0000000E+000	-9.98501	0.0000000E+000	0.0000000E+000	0.0000000E+000	9.98501	5.67997	80.015
44.728	176.546	35.6313	180.106	-11.4104	09/05/2018 13:41:36.9360	0.00538807	0.00195901	99.864	3.90856	1	11	0.0218608	0.000121377	0.00544256	0.00109844	0.00555229	11.4104	3908.56	19366.1	19756.6	-78.5896	0.0000000E+000	0.0000000E+000	0.0000000E+000	78.5896	0.0000000E+000	0.0000000E+000	0.0000000E+000	-78.5896	0.0000000E+000	0.0000000E+000	0.0000000E+000	-11.4104	0.0000000E+000	0.0000000E+000	0.0000000E+000	11.4104	4.9548	78.5896
33.4276	181.936	41.9028	186.699	-12.97	09/05/2018 13:41:38.9542	0.00538752	0.000169186	113.625	5.72368	1	12	0.0218764	0.000117175	0.00521957	0.00120215	0.00535622	12.97	5723.68	24851.4	25502	-77.03	0.0000000E+000	0.0000000E+000	0.0000000E+000	77.03	0.0000000E+000	0.0000000E+000	0.0000000E+000	-77.03	0.0000000E+000	0.0000000E+000	0.0000000E+000	-12.97	0.0000000E+000	0.0000000E+000	0.0000000E+000	12.97	4.34185	77.03
25.0401	188.188	49.0975	194.487	-14.6223	09/05/2018 13:41:40.6384	0.00538391	0.000206041	129.457	8.25015	1	12	0.0218721	0.00011246	0.00497519	0.00129801	0.00514172	14.6223	8250.15	31622.4	32680.9	-75.3777	0.0000000E+000	0.0000000E+000	0.0000000E+000	75.3777	0.0000000E+000	0.0000000E+000	0.0000000E+000	-75.3777	0.0000000E+000	0.0000000E+000	0.0000000E+000	-14.6223	0.0000000E+000	0.0000000E+000	0.0000000E+000	14.6223	3.83294	75.3777
18.735	195.675	57.5581	203.965	-16.3913	09/05/2018 13:41:42.4322	0.00538389	0.000169681	147.591	11.7533	1	12	0.0218721	0.000107235	0.00470354	0.00138355	0.0049028	16.3913	11753.3	39956.8	41649.6	-73.6087	0.0000000E+000	0.0000000E+000	0.0000000E+000	73.6087	0.0000000E+000	0.0000000E+000	0.0000000E+000	-73.6087	0.0000000E+000	0.0000000E+000	0.0000000E+000	-16.3913	0.0000000E+000	0.0000000E+000	0.0000000E+000	16.3913	3.39961	73.6087
14.0176	204.404	67.2612	215.186	-18.2143	09/05/2018 13:41:44.2318	0.00538861	0.000187273	168.803	16.4923	1	12	0.0218702	0.000101634	0.00441429	0.00145256	0.00464714	18.2143	16492.3	50119.4	52763.1	-71.7857	0.0000000E+000	0.0000000E+000	0.0000000E+000	71.7857	0.0000000E+000	0.0000000E+000	0.0000000E+000	-71.7857	0.0000000E+000	0.0000000E+000	0.0000000E+000	-18.2143	0.0000000E+000	0.0000000E+000	0.0000000E+000	18.2143	3.03896	71.7857
10.5007	214.517	78.2321	228.337	-20.0363	09/05/2018 13:41:45.8432	0.00538766	0.000192198	193.739	22.7423	1	12	0.0218674	9.57679e-05	0.00411442	0.00150048	0.00437948	20.0363	22742.3	62360.7	66378.2	-69.9637	0.0000000E+000	0.0000000E+000	0.0000000E+000	69.9637	0.0000000E+000	0.0000000E+000	0.0000000E+000	-69.9637	0.0000000E+000	0.0000000E+000	0.0000000E+000	-20.0363	0.0000000E+000	0.0000000E+000	0.0000000E+000	20.0363	2.74207	69.9637
7.85965	226.018	90.6359	243.514	-21.8513	09/05/2018 13:41:47.9643	0.00538705	0.000186219	223.417	30.9505	1	12	0.0218663	8.97947e-05	0.00381149	0.00152845	0.00410654	21.8513	30950.5	77181.2	83155.8	-68.1487	0.0000000E+000	0.0000000E+000	0.0000000E+000	68.1487	0.0000000E+000	0.0000000E+000	0.0000000E+000	-68.1487	0.0000000E+000	0.0000000E+000	0.0000000E+000	-21.8513	0.0000000E+000	0.0000000E+000	0.0000000E+000	21.8513	2.4937	68.1487
5.88291	238.475	104.576	260.396	-23.6784	09/05/2018 13:41:49.4147	0.00538429	0.000292715	258.701	41.7243	1	12	0.021863	8.39605e-05	0.003517	0.00154227	0.0038403	23.6784	41724.3	95148.3	103895	-66.3216	0.0000000E+000	0.0000000E+000	0.0000000E+000	66.3216	0.0000000E+000	0.0000000E+000	0.0000000E+000	-66.3216	0.0000000E+000	0.0000000E+000	0.0000000E+000	-23.6784	0.0000000E+000	0.0000000E+000	0.0000000E+000	23.6784	2.2804	66.3216
4.39893	251.031	121.295	278.799	-25.7893	09/05/2018 13:41:51.3211	0.00538204	0.000154989	298.284	56.4591	1	12	0.0218676	7.8435e-05	0.00322957	0.00156049	0.00358681	25.7893	56459.1	116847	129772	-64.2107	0.0000000E+000	0.0000000E+000	0.0000000E+000	64.2107	0.0000000E+000	0.0000000E+000	0.0000000E+000	-64.2107	0.0000000E+000	0.0000000E+000	0.0000000E+000	-25.7893	0.0000000E+000	0.0000000E+000	0.0000000E+000	25.7893	2.06959	64.2107
3.29363	263.015	141.992	298.896	-28.363	09/05/2018 13:41:53.8314	0.00538934	0.000232382	340.314	76.8016	1	12	0.0218652	7.31532e-05	0.00294402	0.00158937	0.00334565	28.363	76801.6	142261	161668	-61.637	0.0000000E+000	0.0000000E+000	0.0000000E+000	61.637	0.0000000E+000	0.0000000E+000	0.0000000E+000	-61.637	0.0000000E+000	0.0000000E+000	0.0000000E+000	-28.363	0.0000000E+000	0.0000000E+000	0.0000000E+000	28.363	1.85232	61.637
2.46607	274.101	169.081	322.056	-31.6686	09/05/2018 13:41:57.1543	0.00538755	0.000229821	381.698	105.208	1	12	0.0218658	6.78944e-05	0.00264271	0.00163017	0.00310505	31.6686	105208	170555	200394	-58.3314	0.0000000E+000	0.0000000E+000	0.0000000E+000	58.3314	0.0000000E+000	0.0000000E+000	0.0000000E+000	-58.3314	0.0000000E+000	0.0000000E+000	0.0000000E+000	-31.6686	0.0000000E+000	0.0000000E+000	0.0000000E+000	31.6686	1.62112	58.3314
1.84257	284.137	206.348	351.16	-35.9881	09/05/2018 13:42:01.5707	0.00539031	0.000190527	418.597	144.539	1	12	0.0218628	6.22587e-05	0.00230419	0.00167336	0.00284771	35.9881	144539	199028	245975	-54.0119	0.0000000E+000	0.0000000E+000	0.0000000E+000	54.0119	0.0000000E+000	0.0000000E+000	0.0000000E+000	-54.0119	0.0000000E+000	0.0000000E+000	0.0000000E+000	-35.9881	0.0000000E+000	0.0000000E+000	0.0000000E+000	35.9881	1.37698	54.0119
1.38128	293.55	256.318	389.706	-41.1264	09/05/2018 13:42:07.4371	0.00538656	0.000174283	449.531	194.467	1	12	0.0218625	5.60999e-05	0.00193289	0.00168774	0.00256604	41.1264	194467	222714	295667	-48.8736	0.0000000E+000	0.0000000E+000	0.0000000E+000	48.8736	0.0000000E+000	0.0000000E+000	0.0000000E+000	-48.8736	0.0000000E+000	0.0000000E+000	0.0000000E+000	-41.1264	0.0000000E+000	0.0000000E+000	0.0000000E+000	41.1264	1.14526	48.8736
1.0334	303.366	324.817	444.451	-46.9558	09/05/2018 13:42:16.2649	0.00538824	4.65396e-06	474.148	253.246	1	13	0.0218687	4.92037e-05	0.00153574	0.00164434	0.00224997	46.9558	253246	236522	346520	-43.0442	0.0000000E+000	0.0000000E+000	0.0000000E+000	43.0442	0.0000000E+000	0.0000000E+000	0.0000000E+000	-43.0442	0.0000000E+000	0.0000000E+000	0.0000000E+000	-46.9558	0.0000000E+000	0.0000000E+000	0.0000000E+000	46.9558	0.93396	43.0442
0.773208	313.779	416.982	521.854	-53.0385	09/05/2018 13:42:26.6868	0.00538752	6.77046e-06	493.636	315.169	1	13	0.0218674	4.19033e-05	0.0011522	0.00153116	0.00191625	53.0385	315169	237165	394435	-36.9615	0.0000000E+000	0.0000000E+000	0.0000000E+000	36.9615	0.0000000E+000	0.0000000E+000	0.0000000E+000	-36.9615	0.0000000E+000	0.0000000E+000	0.0000000E+000	-53.0385	0.0000000E+000	0.0000000E+000	0.0000000E+000	53.0385	0.7525	36.9615
0.578532	326.209	540.134	630.997	-58.8705	09/05/2018 13:42:40.5903	0.00539912	8.32446e-06	509.32	373.199	1	13	0.0218604	3.46443e-05	0.000819296	0.00135659	0.00158479	58.8705	373198	225389	435979	-31.1295	0.0000000E+000	0.0000000E+000	0.0000000E+000	31.1295	0.0000000E+000	0.0000000E+000	0.0000000E+000	-31.1295	0.0000000E+000	0.0000000E+000	0.0000000E+000	-58.8705	0.0000000E+000	0.0000000E+000	0.0000000E+000	58.8705	0.60394	31.1295
0.433065	340.087	704.123	781.952	-64.2198	09/05/2018 13:42:59.1393	0.00539581	1.618e-05	521.937	423.209	1	13	0.0218605	2.79564e-05	0.000556198	0.00115157	0.00127885	64.2198	423210	204407	469988	-25.7802	0.0000000E+000	0.0000000E+000	0.0000000E+000	25.7802	0.0000000E+000	0.0000000E+000	0.0000000E+000	-25.7802	0.0000000E+000	0.0000000E+000	0.0000000E+000	-64.2198	0.0000000E+000	0.0000000E+000	0.0000000E+000	64.2198	0.482993	25.7802
0.323901	358.582	921.998	989.273	-68.748	09/05/2018 13:43:23.9175	0.005399	1.23662e-05	532.939	462.919	1	13	0.0218608	2.20978e-05	0.0003664	0.000942101	0.00101084	68.748	462919	180038	496697	-21.252	0.0000000E+000	0.0000000E+000	0.0000000E+000	21.252	0.0000000E+000	0.0000000E+000	0.0000000E+000	-21.252	0.0000000E+000	0.0000000E+000	0.0000000E+000	-68.748	0.0000000E+000	0.0000000E+000	0.0000000E+000	68.748	0.388918	21.252
0.242323	381.341	1209.42	1268.12	-72.4995	09/05/2018 13:43:57.0161	0.00540064	3.16187e-05	543.059	493.951	1	13	0.0218619	1.72397e-05	0.000237135	0.000752071	0.00078857	72.4995	493951	155747	517923	-17.5005	0.0000000E+000	0.0000000E+000	0.0000000E+000	17.5005	0.0000000E+000	0.0000000E+000	0.0000000E+000	-17.5005	0.0000000E+000	0.0000000E+000	0.0000000E+000	-72.4995	0.0000000E+000	0.0000000E+000	0.0000000E+000	72.4995	0.315309	17.5005
0.181534	412.966	1588.55	1641.35	-75.4277	09/05/2018 13:44:41.1777	0.00539524	1.90718e-05	551.901	516.964	1	13	0.0218616	1.33193e-05	0.000153289	0.000589655	0.000609255	75.4277	516964	134392	534147	-14.5723	0.0000000E+000	0.0000000E+000	0.0000000E+000	14.5723	0.0000000E+000	0.0000000E+000	0.0000000E+000	-14.5723	0.0000000E+000	0.0000000E+000	0.0000000E+000	-75.4277	0.0000000E+000	0.0000000E+000	0.0000000E+000	75.4277	0.259964	14.5723
0.135846	454.761	2090.28	2139.17	-77.726	09/05/2018 13:45:40.1709	0.00539557	1.99175e-05	560.493	535.162	1	13	0.0218621	1.02199e-05	9.93783e-05	0.000456785	0.000467471	77.726	535162	116430	547681	-12.274	0.0000000E+000	0.0000000E+000	0.0000000E+000	12.274	0.0000000E+000	0.0000000E+000	0.0000000E+000	-12.274	0.0000000E+000	0.0000000E+000	0.0000000E+000	-77.726	0.0000000E+000	0.0000000E+000	0.0000000E+000	77.726	0.21756	12.274
0.101725	509.833	2749.42	2796.29	-79.4948	09/05/2018 13:46:58.9308	0.00539519	1.95968e-05	569.051	550.134	1	13	0.0218621	7.81826e-06	6.52026e-05	0.000351623	0.000357617	79.4948	550134	102013	559512	-10.5052	0.0000000E+000	0.0000000E+000	0.0000000E+000	10.5052	0.0000000E+000	0.0000000E+000	0.0000000E+000	-10.5052	0.0000000E+000	0.0000000E+000	0.0000000E+000	-79.4948	0.0000000E+000	0.0000000E+000	0.0000000E+000	79.4948	0.185433	10.5052
0.0761037	584.659	3621.69	3668.57	-80.8297	09/05/2018 13:48:44.1862	0.00539669	1.63176e-05	577.436	562.77	1	13	0.0218623	5.95935e-06	4.34418e-05	0.000269102	0.000272585	80.8297	562770	90849.5	570055	-9.1703	0.0000000E+000	0.0000000E+000	0.0000000E+000	9.1703	0.0000000E+000	0.0000000E+000	0.0000000E+000	-9.1703	0.0000000E+000	0.0000000E+000	0.0000000E+000	-80.8297	0.0000000E+000	0.0000000E+000	0.0000000E+000	80.8297	0.161433	9.1703
0.0569665	688.752	4775.22	4824.63	-81.7926	09/05/2018 13:51:22.3976	0.00540802	-4.22045e-06	585.069	573.146	1	14	0.0218616	4.53124e-06	2.95893e-05	0.000205147	0.00020727	81.7926	573146	82667.5	579077	-8.20744	0.0000000E+000	0.0000000E+000	0.0000000E+000	8.20744	0.0000000E+000	0.0000000E+000	0.0000000E+000	-8.20744	0.0000000E+000	0.0000000E+000	0.0000000E+000	-81.7926	0.0000000E+000	0.0000000E+000	0.0000000E+000	81.7926	0.144235	8.20743
0.0426446	825.479	6283.13	6337.12	-82.5153	09/05/2018 13:54:30.1879	0.00539762	-3.21458e-06	593.991	583.912	1	14	0.0218636	3.45009e-06	2.05552e-05	0.000156456	0.0001578	82.5153	583912	76714.6	588930	-7.48467	0.0000000E+000	0.0000000E+000	0.0000000E+000	7.48467	0.0000000E+000	0.0000000E+000	0.0000000E+000	-7.48467	0.0000000E+000	0.0000000E+000	0.0000000E+000	-82.5153	0.0000000E+000	0.0000000E+000	0.0000000E+000	82.5153	0.13138	7.48468
0.0319138	1015.29	8268.49	8330.59	-82.9997	09/05/2018 13:58:41.1011	0.00539675	-1.8502e-06	603.136	594.178	1	14	0.0218627	2.62438e-06	1.46299e-05	0.000119145	0.00012004	82.9997	594178	72959.5	598640	-7.00034	0.0000000E+000	0.0000000E+000	0.0000000E+000	7.00034	0.0000000E+000	0.0000000E+000	0.0000000E+000	-7.00034	0.0000000E+000	0.0000000E+000	0.0000000E+000	-82.9997	0.0000000E+000	0.0000000E+000	0.0000000E+000	82.9997	0.122791	7.00034
0.0238768	1279.55	10878.9	10953.9	-83.2918	09/05/2018 14:04:16.4515	0.00539405	9.10161e-07	612.714	604.353	1	14	0.0218622	1.99584e-06	1.0664e-05	9.06666e-05	9.12916e-05	83.2918	604353	71082.5	608519	-6.70816	0.0000000E+000	0.0000000E+000	0.0000000E+000	6.70816	0.0000000E+000	0.0000000E+000	0.0000000E+000	-6.70816	0.0000000E+000	0.0000000E+000	0.0000000E+000	-83.2918	0.0000000E+000	0.0000000E+000	0.0000000E+000	83.2918	0.117617	6.70816
0.0178412	1651.83	14338.4	14433.3	-83.4283	09/05/2018 14:11:45.2307	0.00539462	1.8111e-07	622.151	614.002	1	14	0.0218625	1.51473e-06	7.9293e-06	6.88292e-05	6.92844e-05	83.4283	614002	70734.7	618063	-6.57166	0.0000000E+000	0.0000000E+000	0.0000000E+000	6.57166	0.0000000E+000	0.0000000E+000	0.0000000E+000	-6.57166	0.0000000E+000	0.0000000E+000	0.0000000E+000	-83.4283	0.0000000E+000	0.0000000E+000	0.0000000E+000	83.4283	0.115203	6.57166
0.0133776	2174.32	18803.3	18928.6	-83.4039	09/05/2018 14:21:43.7299	0.00539551	4.30354e-07	632.715	624.366	1	14	0.0218627	1.15501e-06	6.06856e-06	5.24803e-05	5.283e-05	83.4039	624366	72198.6	628527	-6.5961	0.0000000E+000	0.0000000E+000	0.0000000E+000	6.5961	0.0000000E+000	0.0000000E+000	0.0000000E+000	-6.5961	0.0000000E+000	0.0000000E+000	0.0000000E+000	-83.4039	0.0000000E+000	0.0000000E+000	0.0000000E+000	83.4039	0.115635	6.5961
0.0100058	2923.26	24701.2	24873.6	-83.2507	09/05/2018 14:35:03.8946	0.005391	1.51076e-07	643.949	635.055	1	14	0.0218623	8.78936e-07	4.72487e-06	3.99247e-05	4.02033e-05	83.2507	635055	75155.4	639487	-6.74926	0.0000000E+000	0.0000000E+000	0.0000000E+000	6.74926	0.0000000E+000	0.0000000E+000	0.0000000E+000	-6.74926	0.0000000E+000	0.0000000E+000	0.0000000E+000	-83.2507	0.0000000E+000	0.0000000E+000	0.0000000E+000	83.2507	0.118345	6.74927