File: exp data/EIS mpt files/single type/RM_stacked second run D3_1_C07.mpt
EC-Lab ASCII FILE
Nb header lines : 70

Potentio Electrochemical Impedance Spectroscopy

Run on channel : 7 (SN 13829)
User :
CE vs. WE compliance from -10 V to 10 V
Electrode connection : standard
Potential control : Ewe
Ewe ctrl range : min = -1.00 V, max = 1.00 V
Safety Limits :
	Do not start on E overload
Acquisition started on : 09/05/2018 13:41:21.000
Loaded Setting File : NONE
Saved on :
	File : RM_stacked second run D3_1_C07.mpr
	Directory : D:\Robert\Stacked cells\Second run 3% and 12% PVDF electrodes 12%compressed\
	Host : 10.5.5.6
Device : VMP3 (SN 0628)
Address : 10.5.5.5
EC-Lab for windows v11.17 (software)
Internet server v11.16 (firmware)
Command interpretor v11.16 (firmware)
Electrode material :
Initial state :
Electrolyte :
Comments :
Electrode surface area : 0.001 cm²
Characteristic mass : 0.001 g
Equivalent Weight : 0.000 g/eq.
Density : 0.000 g/cm3
Volume (V) : 0.000 m³
Text export
   Mode : Standard
   Time format : Elapsed
Cycle Definition : Charge/Discharge alternance
Mode                Single sine
E (V)               0.0000
vs.                 Eoc
tE (h:m:s)          0:00:3.0000
record              1
dI                  0.000
unit dI             mA
dt (s)              60.000
fi                  200.000
unit fi             kHz
ff                  10.000
unit ff             mHz
Nd                  8
Points              per decade
spacing             Logarithmic
Va (mV)             20.0
pw                  3.00
Na                  5
corr                0
E range min (V)     -1.000
E range max (V)     1.000
I Range             Auto
Bandwidth           5
nc cycles           0
goto Ns'            0
nr cycles           0
inc. cycle          0

Modify on : 09/05/2018 14:32
No text export
ff                  8.000

freq/Hz	Re(Z)/Ohm	-Im(Z)/Ohm	|Z|/Ohm	Phase(Z)/deg	time/s	<Ewe>/V	<I>/mA	Cs/µF	Cp/µF	cycle number	I Range	|Ewe|/V	|I|/A	Re(Y)/Ohm-1	Im(Y)/Ohm-1	|Y|/Ohm-1	Phase(Y)/deg	Re(C)/nF	Im(C)/nF	|C|/nF	Phase(C)/deg	Re(M)	Im(M)	|M|	Phase(M)/deg	Re(Permittivity)	Im(Permittivity)	|Permittivity|	Phase(Permittivity)/deg	Re(Resistivity)/Ohm.cm	Im(Resistivity)/Ohm.cm	|Resistivity|/Ohm.cm	Phase(Resistivity)/deg	Re(Conductivity)/mS/cm	Im(Conductivity)/mS/cm	|Conductivity|/mS/cm	Phase(Conductivity)/deg	Tan(Delta)	Loss Angle(Delta)/deg
200019	158.135	0.00140441	158.135	-0.000508849	09/05/2018 13:41:26.3321	0.0102193	-0.00114413	566.569	4.46875e-08	1	11	0.0183454	0.000116011	0.00632371	5.61614e-08	0.00632371	0.000508849	4.48913e-05	5.03176	5.03176	-89.9995	0.0000000E+000	0.0000000E+000	0.0000000E+000	89.9995	0.0000000E+000	0.0000000E+000	0.0000000E+000	-89.9995	0.0000000E+000	0.0000000E+000	0.0000000E+000	-0.000508849	0.0000000E+000	0.0000000E+000	0.0000000E+000	0.000508849	112599	89.9995
149678	157.237	0.115381	157.237	-0.0420439	09/05/2018 13:41:27.3971	0.0107576	0.00221676	9.21569	4.96236e-06	1	11	0.0205604	0.000130761	0.00635982	4.66687e-06	0.00635982	0.0420439	0.00496256	6.76251	6.76251	-89.958	0.0000000E+000	0.0000000E+000	0.0000000E+000	89.958	0.0000000E+000	0.0000000E+000	0.0000000E+000	-89.958	0.0000000E+000	0.0000000E+000	0.0000000E+000	-0.0420439	0.0000000E+000	0.0000000E+000	0.0000000E+000	0.0420439	1362.76	89.958
112012	156.731	0.326482	156.732	-0.119351	09/05/2018 13:41:28.4621	0.0107475	0.00220296	4.35208	1.88844e-05	1	11	0.0207588	0.000132448	0.00638032	1.32906e-05	0.00638033	0.119351	0.0188849	9.06565	9.06567	-89.8806	0.0000000E+000	0.0000000E+000	0.0000000E+000	89.8806	0.0000000E+000	0.0000000E+000	0.0000000E+000	-89.8806	0.0000000E+000	0.0000000E+000	0.0000000E+000	-0.119351	0.0000000E+000	0.0000000E+000	0.0000000E+000	0.119351	480.061	89.8806
83828.1	156.426	0.461867	156.427	-0.169172	09/05/2018 13:41:29.5271	0.0107491	0.00216119	4.11068	3.58363e-05	1	11	0.0206523	0.000132025	0.00639273	1.88753e-05	0.00639276	0.169172	0.0358368	12.1372	12.1372	-89.8308	0.0000000E+000	0.0000000E+000	0.0000000E+000	89.8308	0.0000000E+000	0.0000000E+000	0.0000000E+000	-89.8308	0.0000000E+000	0.0000000E+000	0.0000000E+000	-0.169172	0.0000000E+000	0.0000000E+000	0.0000000E+000	0.169172	338.683	89.8308
62734.4	156.372	0.7389	156.374	-0.270736	09/05/2018 13:41:30.5911	0.0107609	0.00232659	3.43344	7.66605e-05	1	11	0.0206295	0.000131924	0.00639486	3.02174e-05	0.00639493	0.270736	0.0766608	16.2235	16.2237	-89.7293	0.0000000E+000	0.0000000E+000	0.0000000E+000	89.7293	0.0000000E+000	0.0000000E+000	0.0000000E+000	-89.7293	0.0000000E+000	0.0000000E+000	0.0000000E+000	-0.270736	0.0000000E+000	0.0000000E+000	0.0000000E+000	0.270736	211.628	89.7293
46953.1	156.373	0.974072	156.376	-0.356901	09/05/2018 13:41:31.6551	0.0107623	0.00234691	3.47988	0.000135023	1	11	0.0204947	0.000131061	0.00639474	3.98339e-05	0.00639486	0.356901	0.135024	21.676	21.6764	-89.6431	0.0000000E+000	0.0000000E+000	0.0000000E+000	89.6431	0.0000000E+000	0.0000000E+000	0.0000000E+000	-89.6431	0.0000000E+000	0.0000000E+000	0.0000000E+000	-0.356901	0.0000000E+000	0.0000000E+000	0.0000000E+000	0.356901	160.535	89.6431
35136.7	156.485	1.16732	156.489	-0.427399	09/05/2018 13:41:32.7201	0.0107739	0.00235848	3.88033	0.000215914	1	11	0.0204206	0.000130492	0.00639005	4.76675e-05	0.00639023	0.427399	0.215914	28.9443	28.9451	-89.5726	0.0000000E+000	0.0000000E+000	0.0000000E+000	89.5726	0.0000000E+000	0.0000000E+000	0.0000000E+000	-89.5726	0.0000000E+000	0.0000000E+000	0.0000000E+000	-0.427399	0.0000000E+000	0.0000000E+000	0.0000000E+000	0.427399	134.054	89.5726
26298.8	156.642	1.37795	156.648	-0.504005	09/05/2018 13:41:33.7851	0.0107719	0.00231372	4.39189	0.000339832	1	11	0.0202648	0.000129365	0.00638348	5.6154e-05	0.00638373	0.504005	0.339833	38.6315	38.633	-89.496	0.0000000E+000	0.0000000E+000	0.0000000E+000	89.496	0.0000000E+000	0.0000000E+000	0.0000000E+000	-89.496	0.0000000E+000	0.0000000E+000	0.0000000E+000	-0.504005	0.0000000E+000	0.0000000E+000	0.0000000E+000	0.504005	113.678	89.496
19677.7	156.877	1.60627	156.885	-0.586632	09/05/2018 13:41:34.7231	0.01078	0.00234598	5.03532	0.000527836	1	11	0.0218264	0.000139123	0.00637375	6.5261e-05	0.00637409	0.586632	0.527835	51.5514	51.5541	-89.4134	0.0000000E+000	0.0000000E+000	0.0000000E+000	89.4134	0.0000000E+000	0.0000000E+000	0.0000000E+000	-89.4134	0.0000000E+000	0.0000000E+000	0.0000000E+000	-0.586632	0.0000000E+000	0.0000000E+000	0.0000000E+000	0.586632	97.6655	89.4134
14726.6	157.133	1.92361	157.145	-0.701378	09/05/2018 13:41:35.7881	0.0107748	0.00234691	5.61825	0.000841857	1	11	0.0202504	0.000128865	0.00636309	7.78968e-05	0.00636357	0.701378	0.841857	68.7681	68.7733	-89.2986	0.0000000E+000	0.0000000E+000	0.0000000E+000	89.2986	0.0000000E+000	0.0000000E+000	0.0000000E+000	-89.2986	0.0000000E+000	0.0000000E+000	0.0000000E+000	-0.701378	0.0000000E+000	0.0000000E+000	0.0000000E+000	0.701378	81.6862	89.2986
11025.4	157.404	2.19791	157.419	-0.799998	09/05/2018 13:41:36.7261	0.0107734	0.00241367	6.56773	0.00128033	1	11	0.020828	0.000132309	0.00635184	8.8694e-05	0.00635246	0.799998	1.28032	91.6907	91.6997	-89.2	0.0000000E+000	0.0000000E+000	0.0000000E+000	89.2	0.0000000E+000	0.0000000E+000	0.0000000E+000	-89.2	0.0000000E+000	0.0000000E+000	0.0000000E+000	-0.799998	0.0000000E+000	0.0000000E+000	0.0000000E+000	0.799998	71.6152	89.2
8325.19	157.793	2.49544	157.812	-0.906037	09/05/2018 13:41:37.8176	0.0107896	0.00249907	7.66089	0.00191554	1	11	0.0211685	0.000134137	0.00633585	0.000100199	0.00633664	0.906037	1.91553	121.124	121.139	-89.094	0.0000000E+000	0.0000000E+000	0.0000000E+000	89.094	0.0000000E+000	0.0000000E+000	0.0000000E+000	-89.094	0.0000000E+000	0.0000000E+000	0.0000000E+000	-0.906037	0.0000000E+000	0.0000000E+000	0.0000000E+000	0.906037	63.2325	89.094
6195.49	158.215	2.89406	158.242	-1.04793	09/05/2018 13:41:39.2328	0.0107725	0.00228613	8.87641	0.00296898	1	11	0.0213752	0.000135079	0.00631838	0.000115575	0.00631944	1.04793	2.96898	162.312	162.339	-88.9521	0.0000000E+000	0.0000000E+000	0.0000000E+000	88.9521	0.0000000E+000	0.0000000E+000	0.0000000E+000	-88.9521	0.0000000E+000	0.0000000E+000	0.0000000E+000	-1.04793	0.0000000E+000	0.0000000E+000	0.0000000E+000	1.04793	54.6691	88.9521
4621.48	158.692	3.33603	158.727	-1.2043	09/05/2018 13:41:40.9197	0.0107693	0.00231745	10.3231	0.00456003	1	11	0.0214884	0.000135379	0.00629873	0.000132412	0.00630012	1.2043	4.56003	216.916	216.964	-88.7957	0.0000000E+000	0.0000000E+000	0.0000000E+000	88.7957	0.0000000E+000	0.0000000E+000	0.0000000E+000	-88.7957	0.0000000E+000	0.0000000E+000	0.0000000E+000	-1.2043	0.0000000E+000	0.0000000E+000	0.0000000E+000	1.2043	47.5691	88.7957
3456.11	159.23	3.82084	159.276	-1.37459	09/05/2018 13:41:42.6077	0.0107716	0.00233461	12.0524	0.00693575	1	11	0.0215542	0.000135327	0.00627662	0.000150612	0.00627843	1.37459	6.93573	289.041	289.124	-88.6254	0.0000000E+000	0.0000000E+000	0.0000000E+000	88.6254	0.0000000E+000	0.0000000E+000	0.0000000E+000	-88.6254	0.0000000E+000	0.0000000E+000	0.0000000E+000	-1.37459	0.0000000E+000	0.0000000E+000	0.0000000E+000	1.37459	41.674	88.6254
2585.83	159.892	4.35272	159.951	-1.55937	09/05/2018 13:41:44.2957	0.0107769	0.00234934	14.1403	0.0104714	1	11	0.0215883	0.000134968	0.00624958	0.000170131	0.0062519	1.55937	10.4714	384.655	384.798	-88.4406	0.0000000E+000	0.0000000E+000	0.0000000E+000	88.4406	0.0000000E+000	0.0000000E+000	0.0000000E+000	-88.4406	0.0000000E+000	0.0000000E+000	0.0000000E+000	-1.55937	0.0000000E+000	0.0000000E+000	0.0000000E+000	1.55937	36.7339	88.4406
1935.62	160.606	4.95715	160.682	-1.76789	09/05/2018 13:41:45.9827	0.0107693	0.00230048	16.587	0.0157869	1	11	0.021607	0.000134471	0.00622051	0.000191998	0.00622347	1.76789	15.7869	511.477	511.721	-88.2321	0.0000000E+000	0.0000000E+000	0.0000000E+000	88.2321	0.0000000E+000	0.0000000E+000	0.0000000E+000	-88.2321	0.0000000E+000	0.0000000E+000	0.0000000E+000	-1.76789	0.0000000E+000	0.0000000E+000	0.0000000E+000	1.76789	32.3988	88.2321
1448.61	161.353	5.61363	161.451	-1.99257	09/05/2018 13:41:47.6709	0.010776	0.00230421	19.5716	0.023661	1	11	0.0216146	0.000133877	0.0061901	0.000215359	0.00619384	1.99257	23.6609	680.09	680.501	-88.0074	0.0000000E+000	0.0000000E+000	0.0000000E+000	88.0074	0.0000000E+000	0.0000000E+000	0.0000000E+000	-88.0074	0.0000000E+000	0.0000000E+000	0.0000000E+000	-1.99257	0.0000000E+000	0.0000000E+000	0.0000000E+000	1.99257	28.7431	88.0074
1083.96	162.28	6.39994	162.406	-2.25844	09/05/2018 13:41:49.3600	0.0107741	0.00229657	22.942	0.035627	1	11	0.0216229	0.000133141	0.00615262	0.000242645	0.00615741	2.25844	35.6269	903.374	904.076	-87.7416	0.0000000E+000	0.0000000E+000	0.0000000E+000	87.7416	0.0000000E+000	0.0000000E+000	0.0000000E+000	-87.7416	0.0000000E+000	0.0000000E+000	0.0000000E+000	-2.25844	0.0000000E+000	0.0000000E+000	0.0000000E+000	2.25844	25.3565	87.7416
811.298	163.265	7.30707	163.428	-2.56261	09/05/2018 13:41:51.0454	0.0107775	0.00230869	26.847	0.0536696	1	11	0.0216222	0.000132304	0.00611277	0.000273582	0.00611889	2.56261	53.6696	1199.16	1200.36	-87.4374	0.0000000E+000	0.0000000E+000	0.0000000E+000	87.4374	0.0000000E+000	0.0000000E+000	0.0000000E+000	-87.4374	0.0000000E+000	0.0000000E+000	0.0000000E+000	-2.56261	0.0000000E+000	0.0000000E+000	0.0000000E+000	2.56261	22.3434	87.4374
607.527	164.396	8.38909	164.61	-2.92126	09/05/2018 13:41:52.7249	0.0107753	0.00232379	31.2277	0.0811071	1	11	0.0216221	0.000131354	0.00606709	0.000309603	0.00607498	2.92126	81.1072	1589.41	1591.47	-87.0787	0.0000000E+000	0.0000000E+000	0.0000000E+000	87.0787	0.0000000E+000	0.0000000E+000	0.0000000E+000	-87.0787	0.0000000E+000	0.0000000E+000	0.0000000E+000	-2.92126	0.0000000E+000	0.0000000E+000	0.0000000E+000	2.92126	19.5964	87.0787
454.564	165.732	9.56652	166.008	-3.30361	09/05/2018 13:41:54.4140	0.0107724	0.00221564	36.5992	0.121541	1	11	0.0216261	0.000130272	0.00601381	0.000347134	0.00602382	3.30361	121.541	2105.6	2109.1	-86.6964	0.0000000E+000	0.0000000E+000	0.0000000E+000	86.6964	0.0000000E+000	0.0000000E+000	0.0000000E+000	-86.6964	0.0000000E+000	0.0000000E+000	0.0000000E+000	-3.30361	0.0000000E+000	0.0000000E+000	0.0000000E+000	3.30361	17.3241	86.6964
340.109	167.175	10.9851	167.536	-3.75951	09/05/2018 13:41:56.1017	0.0107779	0.0022561	42.5988	0.183144	1	11	0.0216219	0.000129058	0.00595603	0.000391372	0.00596888	3.75951	183.144	2787.14	2793.15	-86.2405	0.0000000E+000	0.0000000E+000	0.0000000E+000	86.2405	0.0000000E+000	0.0000000E+000	0.0000000E+000	-86.2405	0.0000000E+000	0.0000000E+000	0.0000000E+000	-3.75951	0.0000000E+000	0.0000000E+000	0.0000000E+000	3.75951	15.2183	86.2405
254.43	168.903	12.6698	169.378	-4.28985	09/05/2018 13:41:57.7922	0.0107681	0.0022548	49.3721	0.276254	1	11	0.0216238	0.000127666	0.00588741	0.000441628	0.00590395	4.28985	276.254	3682.78	3693.13	-85.7102	0.0000000E+000	0.0000000E+000	0.0000000E+000	85.7102	0.0000000E+000	0.0000000E+000	0.0000000E+000	-85.7102	0.0000000E+000	0.0000000E+000	0.0000000E+000	-4.28985	0.0000000E+000	0.0000000E+000	0.0000000E+000	4.28985	13.3312	85.7102
190.549	170.867	14.6008	171.489	-4.88414	09/05/2018 13:41:59.4742	0.0107714	0.00223839	57.2055	0.414683	1	11	0.0216236	0.000126093	0.00581009	0.00049648	0.00583127	4.88414	414.682	4852.85	4870.54	-85.1159	0.0000000E+000	0.0000000E+000	0.0000000E+000	85.1159	0.0000000E+000	0.0000000E+000	0.0000000E+000	-85.1159	0.0000000E+000	0.0000000E+000	0.0000000E+000	-4.88414	0.0000000E+000	0.0000000E+000	0.0000000E+000	4.88414	11.7026	85.1159
142.492	173.156	16.8975	173.979	-5.57359	09/05/2018 13:42:01.1883	0.0107689	0.00224976	66.1006	0.623534	1	11	0.0216232	0.000124286	0.00572065	0.000558253	0.00574783	5.57359	623.535	6389.62	6419.97	-84.4264	0.0000000E+000	0.0000000E+000	0.0000000E+000	84.4264	0.0000000E+000	0.0000000E+000	0.0000000E+000	-84.4264	0.0000000E+000	0.0000000E+000	0.0000000E+000	-5.57359	0.0000000E+000	0.0000000E+000	0.0000000E+000	5.57359	10.2474	84.4264
106.673	175.761	19.4403	176.833	-6.31163	09/05/2018 13:42:02.8496	0.0107688	0.00222981	76.7475	0.927566	1	11	0.0216197	0.000122261	0.00562078	0.000621695	0.00565506	6.31163	927.565	8386.18	8437.32	-83.6884	0.0000000E+000	0.0000000E+000	0.0000000E+000	83.6884	0.0000000E+000	0.0000000E+000	0.0000000E+000	-83.6884	0.0000000E+000	0.0000000E+000	0.0000000E+000	-6.31163	0.0000000E+000	0.0000000E+000	0.0000000E+000	6.31163	9.04106	83.6884
79.8212	178.804	22.486	180.212	-7.16775	09/05/2018 13:42:04.5412	0.0107752	0.00227121	88.6728	1.38052	1	11	0.0216191	0.000119965	0.00550564	0.000692376	0.00554901	7.16775	1380.52	10977.7	11064.1	-82.8323	0.0000000E+000	0.0000000E+000	0.0000000E+000	82.8323	0.0000000E+000	0.0000000E+000	0.0000000E+000	-82.8323	0.0000000E+000	0.0000000E+000	0.0000000E+000	-7.16775	0.0000000E+000	0.0000000E+000	0.0000000E+000	7.16775	7.95181	82.8323
59.7895	182.397	26.0025	184.242	-8.11338	09/05/2018 13:42:06.2354	0.0107653	0.00221061	102.372	2.03908	1	11	0.0216242	0.000117369	0.00537333	0.000766018	0.00542766	8.11338	2039.08	14303.4	14448	-81.8866	0.0000000E+000	0.0000000E+000	0.0000000E+000	81.8866	0.0000000E+000	0.0000000E+000	0.0000000E+000	-81.8866	0.0000000E+000	0.0000000E+000	0.0000000E+000	-8.11338	0.0000000E+000	0.0000000E+000	0.0000000E+000	8.11338	7.01462	81.8866
44.728	186.594	30.0261	188.994	-9.14149	09/05/2018 13:42:08.1800	0.0107635	0.000207769	118.506	2.99118	1	12	0.0216343	0.000114471	0.00522397	0.000840624	0.00529117	9.14149	2991.18	18588.3	18827.5	-80.8585	0.0000000E+000	0.0000000E+000	0.0000000E+000	80.8585	0.0000000E+000	0.0000000E+000	0.0000000E+000	-80.8585	0.0000000E+000	0.0000000E+000	0.0000000E+000	-9.14149	0.0000000E+000	0.0000000E+000	0.0000000E+000	9.14149	6.21439	80.8585
33.4276	191.37	34.6351	194.479	-10.2586	09/05/2018 13:42:09.9412	0.0107667	0.000172934	137.467	4.36001	1	12	0.0216288	0.000111214	0.00505975	0.00091574	0.00514195	10.2586	4360.01	24090.4	24481.8	-79.7414	0.0000000E+000	0.0000000E+000	0.0000000E+000	79.7414	0.0000000E+000	0.0000000E+000	0.0000000E+000	-79.7414	0.0000000E+000	0.0000000E+000	0.0000000E+000	-10.2586	0.0000000E+000	0.0000000E+000	0.0000000E+000	10.2586	5.52531	79.7414
25.0401	196.929	39.9276	200.936	-11.4614	09/05/2018 13:42:11.6274	0.0107551	0.000190217	159.189	6.28555	1	12	0.0216307	0.00010765	0.00487747	0.000988914	0.00497672	11.4614	6285.55	31001.3	31632.1	-78.5386	0.0000000E+000	0.0000000E+000	0.0000000E+000	78.5386	0.0000000E+000	0.0000000E+000	0.0000000E+000	-78.5386	0.0000000E+000	0.0000000E+000	0.0000000E+000	-11.4614	0.0000000E+000	0.0000000E+000	0.0000000E+000	11.4614	4.93215	78.5386
18.735	203.306	45.9491	208.434	-12.7354	09/05/2018 13:42:13.4213	0.0107673	0.000199553	184.88	8.98477	1	12	0.0216276	0.000103762	0.00467966	0.00105765	0.00479769	12.7354	8984.77	39753.9	40756.6	-77.2646	0.0000000E+000	0.0000000E+000	0.0000000E+000	77.2646	0.0000000E+000	0.0000000E+000	0.0000000E+000	-77.2646	0.0000000E+000	0.0000000E+000	0.0000000E+000	-12.7354	0.0000000E+000	0.0000000E+000	0.0000000E+000	12.7354	4.42459	77.2646
14.0176	210.674	52.8785	217.209	-14.09	09/05/2018 13:42:15.2208	0.0107683	0.000194675	214.717	12.7253	1	12	0.0216273	9.9569e-05	0.00446535	0.00112079	0.00460386	14.09	12725.3	50699.2	52271.8	-75.91	0.0000000E+000	0.0000000E+000	0.0000000E+000	75.91	0.0000000E+000	0.0000000E+000	0.0000000E+000	-75.91	0.0000000E+000	0.0000000E+000	0.0000000E+000	-14.09	0.0000000E+000	0.0000000E+000	0.0000000E+000	14.09	3.98412	75.91
10.5007	219.084	60.6459	227.323	-15.4729	09/05/2018 13:42:16.8332	0.0107649	0.000166359	249.92	17.7876	1	12	0.0216215	9.51133e-05	0.00423959	0.00117358	0.00439902	15.4729	17787.6	64257.9	66674.4	-74.5271	0.0000000E+000	0.0000000E+000	0.0000000E+000	74.5271	0.0000000E+000	0.0000000E+000	0.0000000E+000	-74.5271	0.0000000E+000	0.0000000E+000	0.0000000E+000	-15.4729	0.0000000E+000	0.0000000E+000	0.0000000E+000	15.4729	3.61251	74.5271
7.85965	228.838	69.6559	239.204	-16.9297	09/05/2018 13:42:18.9543	0.0107671	0.000181487	290.709	24.6511	1	12	0.0216235	9.03979e-05	0.00399935	0.00121736	0.00418053	16.9297	24651.1	80985.4	84654.1	-73.0703	0.0000000E+000	0.0000000E+000	0.0000000E+000	73.0703	0.0000000E+000	0.0000000E+000	0.0000000E+000	-73.0703	0.0000000E+000	0.0000000E+000	0.0000000E+000	-16.9297	0.0000000E+000	0.0000000E+000	0.0000000E+000	16.9297	3.28526	73.0703
5.88291	240.04	79.9188	252.995	-18.4146	09/05/2018 13:42:20.4047	0.0107649	0.000144758	338.516	33.7796	1	12	0.0216209	8.54597e-05	0.00375026	0.00124861	0.00395265	18.4146	33779.6	101459	106934	-71.5854	0.0000000E+000	0.0000000E+000	0.0000000E+000	71.5854	0.0000000E+000	0.0000000E+000	0.0000000E+000	-71.5854	0.0000000E+000	0.0000000E+000	0.0000000E+000	-18.4146	0.0000000E+000	0.0000000E+000	0.0000000E+000	18.4146	3.00355	71.5854
4.39893	252.854	91.7155	268.973	-19.9368	09/05/2018 13:42:22.3111	0.0107642	0.000206109	394.485	45.8667	1	12	0.0216216	8.03859e-05	0.00349503	0.00126772	0.00371784	19.9368	45866.7	126451	134513	-70.0632	0.0000000E+000	0.0000000E+000	0.0000000E+000	70.0632	0.0000000E+000	0.0000000E+000	0.0000000E+000	-70.0632	0.0000000E+000	0.0000000E+000	0.0000000E+000	-19.9368	0.0000000E+000	0.0000000E+000	0.0000000E+000	19.9368	2.75693	70.0632
3.29363	267.472	105.201	287.417	-21.4705	09/05/2018 13:42:24.8214	0.0107781	0.000221479	459.33	61.5374	1	12	0.0216215	7.52269e-05	0.00323782	0.00127349	0.00347926	21.4705	61537.4	156458	168125	-68.5295	0.0000000E+000	0.0000000E+000	0.0000000E+000	68.5295	0.0000000E+000	0.0000000E+000	0.0000000E+000	-68.5295	0.0000000E+000	0.0000000E+000	0.0000000E+000	-21.4705	0.0000000E+000	0.0000000E+000	0.0000000E+000	21.4705	2.54249	68.5295
2.46607	284.183	120.678	308.744	-23.0085	09/05/2018 13:42:28.1454	0.0107765	0.000214337	534.793	81.7047	1	12	0.0216206	7.00276e-05	0.00298126	0.00126599	0.00323893	23.0085	81704.6	192404	209034	-66.9915	0.0000000E+000	0.0000000E+000	0.0000000E+000	66.9915	0.0000000E+000	0.0000000E+000	0.0000000E+000	-66.9915	0.0000000E+000	0.0000000E+000	0.0000000E+000	-23.0085	0.0000000E+000	0.0000000E+000	0.0000000E+000	23.0085	2.35488	66.9915
1.84257	303.431	138.562	333.572	-24.5438	09/05/2018 13:42:32.5617	0.0107769	0.000254941	623.38	107.563	1	12	0.0216218	6.48191e-05	0.00272698	0.00124528	0.00299786	24.5438	107563	235548	258945	-65.4562	0.0000000E+000	0.0000000E+000	0.0000000E+000	65.4562	0.0000000E+000	0.0000000E+000	0.0000000E+000	-65.4562	0.0000000E+000	0.0000000E+000	0.0000000E+000	-24.5438	0.0000000E+000	0.0000000E+000	0.0000000E+000	24.5438	2.18986	65.4562
1.38128	325.311	158.921	362.054	-26.0365	09/05/2018 13:42:38.4271	0.0107815	0.00023228	725.033	139.693	1	12	0.0216215	5.9719e-05	0.00248171	0.00121237	0.00276202	26.0365	139693	285951	318248	-63.9635	0.0000000E+000	0.0000000E+000	0.0000000E+000	63.9635	0.0000000E+000	0.0000000E+000	0.0000000E+000	-63.9635	0.0000000E+000	0.0000000E+000	0.0000000E+000	-26.0365	0.0000000E+000	0.0000000E+000	0.0000000E+000	26.0365	2.04699	63.9635
1.0334	350.439	182.605	395.161	-27.523	09/05/2018 13:42:46.2430	0.0107782	0.000251657	843.409	180.102	1	12	0.0216211	5.47146e-05	0.00224421	0.00116941	0.00253061	27.523	180102	345634	389743	-62.477	0.0000000E+000	0.0000000E+000	0.0000000E+000	62.477	0.0000000E+000	0.0000000E+000	0.0000000E+000	-62.477	0.0000000E+000	0.0000000E+000	0.0000000E+000	-27.523	0.0000000E+000	0.0000000E+000	0.0000000E+000	27.523	1.9191	62.477
0.773208	379.228	209.908	433.446	-28.9651	09/05/2018 13:42:56.6646	0.0107832	0.000274274	980.608	229.976	1	12	0.0216208	4.98811e-05	0.00201851	0.00111727	0.00230709	28.9651	229976	415484	474885	-61.0349	0.0000000E+000	0.0000000E+000	0.0000000E+000	61.0349	0.0000000E+000	0.0000000E+000	0.0000000E+000	-61.0349	0.0000000E+000	0.0000000E+000	0.0000000E+000	-28.9651	0.0000000E+000	0.0000000E+000	0.0000000E+000	28.9651	1.80664	61.0349
0.578532	412.262	241.487	477.782	-30.3602	09/05/2018 13:43:12.3400	0.0107708	4.53855e-05	1139.19	291.023	1	13	0.0216168	4.5244e-05	0.00180598	0.00105787	0.002093	30.3602	291023	496827	575788	-59.6398	0.0000000E+000	0.0000000E+000	0.0000000E+000	59.6398	0.0000000E+000	0.0000000E+000	0.0000000E+000	-59.6398	0.0000000E+000	0.0000000E+000	0.0000000E+000	-30.3602	0.0000000E+000	0.0000000E+000	0.0000000E+000	30.3602	1.70718	59.6398
0.433065	449.684	277.951	528.651	-31.7203	09/05/2018 13:43:30.8889	0.0107863	-9.85024e-06	1322.21	365.507	1	13	0.0216234	4.09029e-05	0.00160905	0.000994555	0.00189161	31.7203	365507	591337	695180	-58.2797	0.0000000E+000	0.0000000E+000	0.0000000E+000	58.2797	0.0000000E+000	0.0000000E+000	0.0000000E+000	-58.2797	0.0000000E+000	0.0000000E+000	0.0000000E+000	-31.7203	0.0000000E+000	0.0000000E+000	0.0000000E+000	31.7203	1.61786	58.2797
0.323901	494.198	320.294	588.914	-32.9476	09/05/2018 13:43:55.6672	0.0107953	1.20373e-05	1534.12	453.787	1	13	0.0216235	3.67175e-05	0.00142494	0.000923517	0.00169804	32.9476	453787	700171	834363	-57.0524	0.0000000E+000	0.0000000E+000	0.0000000E+000	57.0524	0.0000000E+000	0.0000000E+000	0.0000000E+000	-57.0524	0.0000000E+000	0.0000000E+000	0.0000000E+000	-32.9476	0.0000000E+000	0.0000000E+000	0.0000000E+000	32.9476	1.54295	57.0524
0.242323	545.489	368.648	658.377	-34.0513	09/05/2018 13:44:28.7660	0.0107926	-7.59978e-06	1781.61	558.584	1	13	0.0216219	3.28413e-05	0.00125845	0.000850478	0.00151889	34.0513	558584	826537	997586	-55.9487	0.0000000E+000	0.0000000E+000	0.0000000E+000	55.9487	0.0000000E+000	0.0000000E+000	0.0000000E+000	-55.9487	0.0000000E+000	0.0000000E+000	0.0000000E+000	-34.0513	0.0000000E+000	0.0000000E+000	0.0000000E+000	34.0513	1.4797	55.9487
0.181534	605.625	422.327	738.338	-34.8896	09/05/2018 13:45:12.9274	0.0107914	1.41551e-05	2075.93	679.206	1	13	0.0216227	2.92857e-05	0.00111095	0.00077471	0.00135439	34.8896	679205	973994	1.18743e+06	-55.1104	0.0000000E+000	0.0000000E+000	0.0000000E+000	55.1104	0.0000000E+000	0.0000000E+000	0.0000000E+000	-55.1104	0.0000000E+000	0.0000000E+000	0.0000000E+000	-34.8896	0.0000000E+000	0.0000000E+000	0.0000000E+000	34.8896	1.43402	55.1104
0.135846	673.195	479.72	826.634	-35.4737	09/05/2018 13:46:11.9206	0.0107887	1.23774e-05	2442.22	822.499	1	13	0.0216206	2.6155e-05	0.000985178	0.00070204	0.00120973	35.4737	822499	1.15422e+06	1.4173e+06	-54.5263	0.0000000E+000	0.0000000E+000	0.0000000E+000	54.5263	0.0000000E+000	0.0000000E+000	0.0000000E+000	-54.5263	0.0000000E+000	0.0000000E+000	0.0000000E+000	-35.4737	0.0000000E+000	0.0000000E+000	0.0000000E+000	35.4737	1.40331	54.5263
0.101725	743.059	540.705	918.966	-36.0424	09/05/2018 13:47:30.6807	0.0107976	2.31338e-05	2893.55	1001.74	1	13	0.0216208	2.35273e-05	0.000879881	0.000640268	0.00108818	36.0424	1.00174e+06	1.37662e+06	1.70252e+06	-53.9576	0.0000000E+000	0.0000000E+000	0.0000000E+000	53.9576	0.0000000E+000	0.0000000E+000	0.0000000E+000	-53.9576	0.0000000E+000	0.0000000E+000	0.0000000E+000	-36.0424	0.0000000E+000	0.0000000E+000	0.0000000E+000	36.0424	1.37424	53.9576
0.0761037	808.658	611.523	1013.85	-37.0973	09/05/2018 13:49:15.9360	0.0107909	2.29065e-05	3419.81	1244.18	1	13	0.0216203	2.1325e-05	0.000786718	0.000594932	0.000986341	37.0973	1.24418e+06	1.64526e+06	2.06273e+06	-52.9027	0.0000000E+000	0.0000000E+000	0.0000000E+000	52.9027	0.0000000E+000	0.0000000E+000	0.0000000E+000	-52.9027	0.0000000E+000	0.0000000E+000	0.0000000E+000	-37.0973	0.0000000E+000	0.0000000E+000	0.0000000E+000	37.0973	1.32237	52.9027
0.0569665	864.226	701.595	1113.16	-39.0703	09/05/2018 13:51:36.5297	0.0107872	-1.78854e-05	3982.12	1581.88	1	13	0.0216275	1.94289e-05	0.00069745	0.000566203	0.000898344	39.0703	1.58188e+06	1.94856e+06	2.50983e+06	-50.9297	0.0000000E+000	0.0000000E+000	0.0000000E+000	50.9297	0.0000000E+000	0.0000000E+000	0.0000000E+000	-50.9297	0.0000000E+000	0.0000000E+000	0.0000000E+000	-39.0703	0.0000000E+000	0.0000000E+000	0.0000000E+000	39.0703	1.2318	50.9297
0.0426446	908.823	831.024	1231.49	-42.4397	09/05/2018 13:54:44.3201	0.0107842	-1.60404e-06	4490.99	2045.08	1	13	0.0216242	1.75595e-05	0.000599266	0.000547967	0.000812027	42.4397	2.04508e+06	2.23653e+06	3.03058e+06	-47.5603	0.0000000E+000	0.0000000E+000	0.0000000E+000	47.5603	0.0000000E+000	0.0000000E+000	0.0000000E+000	-47.5603	0.0000000E+000	0.0000000E+000	0.0000000E+000	-42.4397	0.0000000E+000	0.0000000E+000	0.0000000E+000	42.4397	1.09362	47.5603
0.0319138	944.361	1013.07	1384.97	-47.0104	09/05/2018 13:58:55.2333	0.0107857	5.58894e-06	4922.67	2633.92	1	13	0.0216219	1.56119e-05	0.000492333	0.000528155	0.000722039	47.0104	2.63392e+06	2.45528e+06	3.60083e+06	-42.9896	0.0000000E+000	0.0000000E+000	0.0000000E+000	42.9896	0.0000000E+000	0.0000000E+000	0.0000000E+000	-42.9896	0.0000000E+000	0.0000000E+000	0.0000000E+000	-47.0104	0.0000000E+000	0.0000000E+000	0.0000000E+000	47.0104	0.932175	42.9896
0.0238768	973.338	1271.42	1601.22	-52.5641	09/05/2018 14:04:30.5834	0.0107922	1.80443e-05	5242.69	3305.46	1	13	0.0216214	1.35031e-05	0.000379632	0.000495894	0.000624525	52.5641	3.30546e+06	2.5305e+06	4.16287e+06	-37.4359	0.0000000E+000	0.0000000E+000	0.0000000E+000	37.4359	0.0000000E+000	0.0000000E+000	0.0000000E+000	-37.4359	0.0000000E+000	0.0000000E+000	0.0000000E+000	-52.5641	0.0000000E+000	0.0000000E+000	0.0000000E+000	52.5641	0.765551	37.4359
0.0178412	999.649	1630.04	1912.15	-58.4806	09/05/2018 14:11:59.3623	0.0108089	2.61971e-05	5472.68	3976.96	1	13	0.0216204	1.13068e-05	0.000273403	0.000445814	0.000522972	58.4806	3.97696e+06	2.43894e+06	4.66526e+06	-31.5194	0.0000000E+000	0.0000000E+000	0.0000000E+000	31.5194	0.0000000E+000	0.0000000E+000	0.0000000E+000	-31.5194	0.0000000E+000	0.0000000E+000	0.0000000E+000	-58.4806	0.0000000E+000	0.0000000E+000	0.0000000E+000	58.4806	0.613268	31.5194
0.0133776	1027.13	2111.88	2348.41	-64.0635	09/05/2018 14:21:57.8615	0.0108072	2.22611e-05	5633.44	4555.79	1	13	0.0216201	9.20626e-06	0.000186242	0.000382931	0.00042582	64.0635	4.55579e+06	2.21575e+06	5.06604e+06	-25.9365	0.0000000E+000	0.0000000E+000	0.0000000E+000	25.9365	0.0000000E+000	0.0000000E+000	0.0000000E+000	-25.9365	0.0000000E+000	0.0000000E+000	0.0000000E+000	-64.0635	0.0000000E+000	0.0000000E+000	0.0000000E+000	64.0635	0.48636	25.9365
0.0106845	1054.2	2733.9	2930.11	-68.9133	09/05/2018 14:35:11.6696	0.0107941	4.86537e-05	5448.59	4743.31	1	13	0.02162	7.37856e-06	0.000122788	0.000318431	0.000341284	68.9133	4.74331e+06	1.82903e+06	5.08373e+06	-21.0867	0.0000000E+000	0.0000000E+000	0.0000000E+000	21.0867	0.0000000E+000	0.0000000E+000	0.0000000E+000	-21.0867	0.0000000E+000	0.0000000E+000	0.0000000E+000	-68.9133	0.0000000E+000	0.0000000E+000	0.0000000E+000	68.9133	0.385602	21.0867
0.0080046	1087.1	3418.5	3587.19	-72.359	09/05/2018 14:51:51.8604	0.0108127	2.5274e-05	5816.28	5282.11	1	13	0.0216198	6.02694e-06	8.44817e-05	0.000265661	0.00027877	72.359	5.28211e+06	1.67974e+06	5.54276e+06	-17.641	0.0000000E+000	0.0000000E+000	0.0000000E+000	17.641	0.0000000E+000	0.0000000E+000	0.0000000E+000	-17.641	0.0000000E+000	0.0000000E+000	0.0000000E+000	-72.359	0.0000000E+000	0.0000000E+000	0.0000000E+000	72.359	0.318006	17.641