File: exp data/EIS mpt files/single type/RM_stacked second run S12_2_C06.mpt
EC-Lab ASCII FILE
Nb header lines : 66

Potentio Electrochemical Impedance Spectroscopy

Run on channel : 6 (SN 13224)
User :
CE vs. WE compliance from -10 V to 10 V
Electrode connection : standard
Potential control : Ewe
Ewe ctrl range : min = -1.00 V, max = 1.00 V
Safety Limits :
	Do not start on E overload
Acquisition started on : 09/05/2018 13:41:02.000
Loaded Setting File : NONE
Saved on :
	File : RM_stacked second run S12_2_C06.mpr
	Directory : D:\Robert\Stacked cells\Second run 3% and 12% PVDF electrodes 12%compressed\
	Host : 10.5.5.6
Device : VMP3 (SN 0628)
Address : 10.5.5.5
EC-Lab for windows v11.17 (software)
Internet server v11.16 (firmware)
Command interpretor v11.16 (firmware)
Electrode material :
Initial state :
Electrolyte :
Comments :
Electrode surface area : 0.001 cm²
Characteristic mass : 0.001 g
Equivalent Weight : 0.000 g/eq.
Density : 0.000 g/cm3
Volume (V) : 0.000 m³
Text export
   Mode : Standard
   Time format : Elapsed
Cycle Definition : Charge/Discharge alternance
Mode                Single sine
E (V)               0.0000
vs.                 Eoc
tE (h:m:s)          0:00:3.0000
record              1
dI                  0.000
unit dI             mA
dt (s)              60.000
fi                  200.000
unit fi             kHz
ff                  10.000
unit ff             mHz
Nd                  8
Points              per decade
spacing             Logarithmic
Va (mV)             20.0
pw                  3.00
Na                  5
corr                0
E range min (V)     -1.000
E range max (V)     1.000
I Range             Auto
Bandwidth           5
nc cycles           0
goto Ns'            0
nr cycles           0
inc. cycle          0

freq/Hz	Re(Z)/Ohm	-Im(Z)/Ohm	|Z|/Ohm	Phase(Z)/deg	time/s	<Ewe>/V	<I>/mA	Cs/µF	Cp/µF	cycle number	I Range	|Ewe|/V	|I|/A	Re(Y)/Ohm-1	Im(Y)/Ohm-1	|Y|/Ohm-1	Phase(Y)/deg	Re(C)/nF	Im(C)/nF	|C|/nF	Phase(C)/deg	Re(M)	Im(M)	|M|	Phase(M)/deg	Re(Permittivity)	Im(Permittivity)	|Permittivity|	Phase(Permittivity)/deg	Re(Resistivity)/Ohm.cm	Im(Resistivity)/Ohm.cm	|Resistivity|/Ohm.cm	Phase(Resistivity)/deg	Re(Conductivity)/mS/cm	Im(Conductivity)/mS/cm	|Conductivity|/mS/cm	Phase(Conductivity)/deg	Tan(Delta)	Loss Angle(Delta)/deg
200019	136.366	-0.350314	136.367	0.147188	09/05/2018 13:41:07.4771	-0.00442419	0.00391718	-2.27138	-1.49895e-05	1	11	0.0208989	0.000153255	0.00733314	-1.88382e-05	0.00733316	-0.147188	-0.0149894	5.83496	5.83498	-90.1472	0.0000000E+000	0.0000000E+000	0.0000000E+000	90.1472	0.0000000E+000	0.0000000E+000	0.0000000E+000	-90.1472	0.0000000E+000	0.0000000E+000	0.0000000E+000	0.147188	0.0000000E+000	0.0000000E+000	0.0000000E+000	-0.147188	389.269	89.8528
149678	135.961	-0.00827703	135.961	0.00348805	09/05/2018 13:41:08.5421	-0.00453778	0.00305857	-128.466	-4.76111e-07	1	11	0.0208006	0.000152989	0.00735505	-4.4776e-07	0.00735505	-0.00348805	-0.000475918	7.82075	7.82075	-90.0035	0.0000000E+000	0.0000000E+000	0.0000000E+000	90.0035	0.0000000E+000	0.0000000E+000	0.0000000E+000	-90.0035	0.0000000E+000	0.0000000E+000	0.0000000E+000	0.00348805	0.0000000E+000	0.0000000E+000	0.0000000E+000	-0.00348805	16426.3	89.9965
112012	135.762	0.266472	135.762	-0.112459	09/05/2018 13:41:09.6061	-0.00457364	0.00272064	5.33218	2.05424e-05	1	11	0.020752	0.000152856	0.00736581	1.44575e-05	0.00736582	0.112459	0.020542	10.4659	10.4659	-89.8875	0.0000000E+000	0.0000000E+000	0.0000000E+000	89.8875	0.0000000E+000	0.0000000E+000	0.0000000E+000	-89.8875	0.0000000E+000	0.0000000E+000	0.0000000E+000	-0.112459	0.0000000E+000	0.0000000E+000	0.0000000E+000	0.112459	509.479	89.8875
83828.1	135.647	0.638229	135.648	-0.26958	09/05/2018 13:41:10.6711	-0.0045719	0.00248081	2.97477	6.58536e-05	1	11	0.0207625	0.000153062	0.00737194	3.46856e-05	0.00737202	0.26958	0.065853	13.9963	13.9964	-89.7304	0.0000000E+000	0.0000000E+000	0.0000000E+000	89.7304	0.0000000E+000	0.0000000E+000	0.0000000E+000	-89.7304	0.0000000E+000	0.0000000E+000	0.0000000E+000	-0.26958	0.0000000E+000	0.0000000E+000	0.0000000E+000	0.26958	212.536	89.7304
62734.4	135.828	0.941427	135.831	-0.397113	09/05/2018 13:41:11.7351	-0.00457423	0.00268969	2.69481	0.000129451	1	11	0.02068	0.000152248	0.00736192	5.10257e-05	0.00736209	0.397113	0.12945	18.6769	18.6774	-89.6029	0.0000000E+000	0.0000000E+000	0.0000000E+000	89.6029	0.0000000E+000	0.0000000E+000	0.0000000E+000	-89.6029	0.0000000E+000	0.0000000E+000	0.0000000E+000	-0.397113	0.0000000E+000	0.0000000E+000	0.0000000E+000	0.397113	144.278	89.6029
46953.1	135.852	1.12315	135.856	-0.473682	09/05/2018 13:41:12.8001	-0.00458827	0.00257854	3.01798	0.000206269	1	11	0.0205763	0.000151457	0.00736047	6.08526e-05	0.00736072	0.473682	0.206268	24.9495	24.9503	-89.5263	0.0000000E+000	0.0000000E+000	0.0000000E+000	89.5263	0.0000000E+000	0.0000000E+000	0.0000000E+000	-89.5263	0.0000000E+000	0.0000000E+000	0.0000000E+000	-0.473682	0.0000000E+000	0.0000000E+000	0.0000000E+000	0.473682	120.956	89.5263
35136.7	136.088	1.27327	136.094	-0.536056	09/05/2018 13:41:13.8641	-0.00455928	0.00294126	3.55745	0.000311387	1	11	0.0204168	0.00015002	0.00734754	6.87451e-05	0.00734786	0.536056	0.311388	33.2813	33.2828	-89.4639	0.0000000E+000	0.0000000E+000	0.0000000E+000	89.4639	0.0000000E+000	0.0000000E+000	0.0000000E+000	-89.4639	0.0000000E+000	0.0000000E+000	0.0000000E+000	-0.536056	0.0000000E+000	0.0000000E+000	0.0000000E+000	0.536056	106.881	89.4639
26298.8	136.247	1.45036	136.255	-0.609893	09/05/2018 13:41:14.9281	-0.00460666	0.00251252	4.17262	0.000472774	1	11	0.0202947	0.000148947	0.00733876	7.81214e-05	0.00733918	0.609893	0.472775	44.4126	44.4152	-89.3901	0.0000000E+000	0.0000000E+000	0.0000000E+000	89.3901	0.0000000E+000	0.0000000E+000	0.0000000E+000	-89.3901	0.0000000E+000	0.0000000E+000	0.0000000E+000	-0.609893	0.0000000E+000	0.0000000E+000	0.0000000E+000	0.609893	93.9405	89.3901
19677.7	136.491	1.70291	136.501	-0.714809	09/05/2018 13:41:15.9931	-0.00454337	0.00285212	4.74955	0.000739205	1	11	0.020308	0.000148776	0.00732537	9.13945e-05	0.00732594	0.714809	0.739209	59.2481	59.2528	-89.2852	0.0000000E+000	0.0000000E+000	0.0000000E+000	89.2852	0.0000000E+000	0.0000000E+000	0.0000000E+000	-89.2852	0.0000000E+000	0.0000000E+000	0.0000000E+000	-0.714809	0.0000000E+000	0.0000000E+000	0.0000000E+000	0.714809	80.1512	89.2852
14726.6	136.71	1.96341	136.724	-0.822819	09/05/2018 13:41:16.9321	-0.00462779	0.0022753	5.50437	0.00113512	1	11	0.0214192	0.00015666	0.00731325	0.000105032	0.00731401	0.822819	1.13512	79.0369	79.045	-89.1772	0.0000000E+000	0.0000000E+000	0.0000000E+000	89.1772	0.0000000E+000	0.0000000E+000	0.0000000E+000	-89.1772	0.0000000E+000	0.0000000E+000	0.0000000E+000	-0.822819	0.0000000E+000	0.0000000E+000	0.0000000E+000	0.822819	69.6287	89.1772
11025.4	137.04	2.19596	137.057	-0.918045	09/05/2018 13:41:17.9971	-0.00453157	0.00303041	6.57357	0.00168751	1	11	0.0201814	0.000147248	0.00729527	0.000116901	0.00729621	0.918045	1.68751	105.31	105.323	-89.082	0.0000000E+000	0.0000000E+000	0.0000000E+000	89.082	0.0000000E+000	0.0000000E+000	0.0000000E+000	-89.082	0.0000000E+000	0.0000000E+000	0.0000000E+000	-0.918045	0.0000000E+000	0.0000000E+000	0.0000000E+000	0.918045	62.4053	89.082
8325.19	137.415	2.48476	137.437	-1.03592	09/05/2018 13:41:19.0896	-0.00450252	0.00320385	7.69381	0.00251479	1	11	0.0205673	0.000149649	0.00727485	0.000131545	0.00727604	1.03592	2.51478	139.075	139.098	-88.9641	0.0000000E+000	0.0000000E+000	0.0000000E+000	88.9641	0.0000000E+000	0.0000000E+000	0.0000000E+000	-88.9641	0.0000000E+000	0.0000000E+000	0.0000000E+000	-1.03592	0.0000000E+000	0.0000000E+000	0.0000000E+000	1.03592	55.303	88.9641
6195.49	137.804	2.9316	137.835	-1.21871	09/05/2018 13:41:20.5048	-0.00455648	0.00268745	8.76272	0.00396395	1	11	0.0208303	0.000151124	0.00725339	0.000154307	0.00725504	1.21871	3.96396	186.331	186.373	-88.7813	0.0000000E+000	0.0000000E+000	0.0000000E+000	88.7813	0.0000000E+000	0.0000000E+000	0.0000000E+000	-88.7813	0.0000000E+000	0.0000000E+000	0.0000000E+000	-1.21871	0.0000000E+000	0.0000000E+000	0.0000000E+000	1.21871	47.0064	88.7813
4621.48	138.15	3.19362	138.186	-1.32428	09/05/2018 13:41:22.1937	-0.00455436	0.00261845	10.7834	0.00575959	1	11	0.0209505	0.000151611	0.00723467	0.000167245	0.0072366	1.32428	5.7596	249.148	249.215	-88.6757	0.0000000E+000	0.0000000E+000	0.0000000E+000	88.6757	0.0000000E+000	0.0000000E+000	0.0000000E+000	-88.6757	0.0000000E+000	0.0000000E+000	0.0000000E+000	-1.32428	0.0000000E+000	0.0000000E+000	0.0000000E+000	1.32428	43.258	88.6757
3456.11	138.777	3.83598	138.83	-1.58333	09/05/2018 13:41:23.8807	-0.00459077	0.00248492	12.0048	0.00916526	1	11	0.0209938	0.00015122	0.00720032	0.000199027	0.00720307	1.58333	9.16524	331.577	331.704	-88.4167	0.0000000E+000	0.0000000E+000	0.0000000E+000	88.4167	0.0000000E+000	0.0000000E+000	0.0000000E+000	-88.4167	0.0000000E+000	0.0000000E+000	0.0000000E+000	-1.58333	0.0000000E+000	0.0000000E+000	0.0000000E+000	1.58333	36.1776	88.4167
2585.83	139.236	4.39729	139.306	-1.80889	09/05/2018 13:41:25.5677	-0.00454129	0.00274843	13.997	0.0139466	1	11	0.0210522	0.000151123	0.00717489	0.000226594	0.00717846	1.80889	13.9466	441.607	441.827	-88.1911	0.0000000E+000	0.0000000E+000	0.0000000E+000	88.1911	0.0000000E+000	0.0000000E+000	0.0000000E+000	-88.1911	0.0000000E+000	0.0000000E+000	0.0000000E+000	-1.80889	0.0000000E+000	0.0000000E+000	0.0000000E+000	1.80889	31.6641	88.1911
1935.62	140.012	4.997	140.101	-2.04401	09/05/2018 13:41:27.2557	-0.0045634	0.00278237	16.4547	0.0209328	1	11	0.021066	0.000150363	0.00713318	0.000254582	0.00713772	2.04401	20.9329	586.521	586.894	-87.956	0.0000000E+000	0.0000000E+000	0.0000000E+000	87.956	0.0000000E+000	0.0000000E+000	0.0000000E+000	-87.956	0.0000000E+000	0.0000000E+000	0.0000000E+000	-2.04401	0.0000000E+000	0.0000000E+000	0.0000000E+000	2.04401	28.0192	87.956
1448.61	140.808	5.63773	140.921	-2.2928	09/05/2018 13:41:28.9449	-0.00451923	0.00298658	19.4879	0.0311904	1	11	0.0210773	0.000149568	0.00709048	0.000283891	0.00709616	2.2928	31.1903	779.013	779.637	-87.7072	0.0000000E+000	0.0000000E+000	0.0000000E+000	87.7072	0.0000000E+000	0.0000000E+000	0.0000000E+000	-87.7072	0.0000000E+000	0.0000000E+000	0.0000000E+000	-2.2928	0.0000000E+000	0.0000000E+000	0.0000000E+000	2.2928	24.9761	87.7072
1083.96	141.612	6.64296	141.767	-2.68576	09/05/2018 13:41:30.6339	-0.00455637	0.00270367	22.1027	0.0485306	1	11	0.0210877	0.000148748	0.00704606	0.000330528	0.00705381	2.68576	48.5307	1034.55	1035.69	-87.3142	0.0000000E+000	0.0000000E+000	0.0000000E+000	87.3142	0.0000000E+000	0.0000000E+000	0.0000000E+000	-87.3142	0.0000000E+000	0.0000000E+000	0.0000000E+000	-2.68576	0.0000000E+000	0.0000000E+000	0.0000000E+000	2.68576	21.3176	87.3142
811.298	142.684	7.64908	142.889	-3.0686	09/05/2018 13:41:32.3204	-0.00451708	0.00297707	25.6466	0.0734938	1	11	0.0210702	0.000147458	0.0069884	0.000374637	0.00699843	3.0686	73.4939	1370.94	1372.91	-86.9314	0.0000000E+000	0.0000000E+000	0.0000000E+000	86.9314	0.0000000E+000	0.0000000E+000	0.0000000E+000	-86.9314	0.0000000E+000	0.0000000E+000	0.0000000E+000	-3.0686	0.0000000E+000	0.0000000E+000	0.0000000E+000	3.0686	18.6538	86.9314
607.527	143.79	8.82152	144.061	-3.51069	09/05/2018 13:41:34.0009	-0.00452637	0.00281576	29.6969	0.111354	1	11	0.0210819	0.000146341	0.0069285	0.000425063	0.00694152	3.51069	111.355	1815.07	1818.48	-86.4893	0.0000000E+000	0.0000000E+000	0.0000000E+000	86.4893	0.0000000E+000	0.0000000E+000	0.0000000E+000	-86.4893	0.0000000E+000	0.0000000E+000	0.0000000E+000	-3.51069	0.0000000E+000	0.0000000E+000	0.0000000E+000	3.51069	16.2999	86.4893
454.564	145.022	10.4216	145.396	-4.11034	09/05/2018 13:41:35.6900	-0.00450739	0.00298024	33.5962	0.172606	1	11	0.0210766	0.00014496	0.00686007	0.00049298	0.00687776	4.11034	172.606	2401.9	2408.09	-85.8897	0.0000000E+000	0.0000000E+000	0.0000000E+000	85.8897	0.0000000E+000	0.0000000E+000	0.0000000E+000	-85.8897	0.0000000E+000	0.0000000E+000	0.0000000E+000	-4.11034	0.0000000E+000	0.0000000E+000	0.0000000E+000	4.11034	13.9155	85.8897
340.109	146.629	11.908	147.112	-4.6429	09/05/2018 13:41:37.3767	-0.00457336	0.00245228	39.2974	0.257481	1	11	0.0210785	0.000143282	0.00677525	0.000550229	0.00679755	4.6429	257.481	3170.5	3180.93	-85.3571	0.0000000E+000	0.0000000E+000	0.0000000E+000	85.3571	0.0000000E+000	0.0000000E+000	0.0000000E+000	-85.3571	0.0000000E+000	0.0000000E+000	0.0000000E+000	-4.6429	0.0000000E+000	0.0000000E+000	0.0000000E+000	4.6429	12.3135	85.3571
254.43	148.378	13.9491	149.032	-5.37064	09/05/2018 13:41:39.0672	-0.00455827	0.00268838	44.8441	0.392862	1	11	0.0210944	0.000141543	0.00668051	0.000628041	0.00670997	5.37064	392.862	4178.9	4197.32	-84.6294	0.0000000E+000	0.0000000E+000	0.0000000E+000	84.6294	0.0000000E+000	0.0000000E+000	0.0000000E+000	-84.6294	0.0000000E+000	0.0000000E+000	0.0000000E+000	-5.37064	0.0000000E+000	0.0000000E+000	0.0000000E+000	5.37064	10.6371	84.6294
190.549	150.485	16.2565	151.361	-6.16559	09/05/2018 13:41:40.7492	-0.00456353	0.0026563	51.3793	0.592672	1	11	0.021064	0.000139164	0.00656853	0.000709579	0.00660674	6.16559	592.673	5486.33	5518.25	-83.8344	0.0000000E+000	0.0000000E+000	0.0000000E+000	83.8344	0.0000000E+000	0.0000000E+000	0.0000000E+000	-83.8344	0.0000000E+000	0.0000000E+000	0.0000000E+000	-6.16559	0.0000000E+000	0.0000000E+000	0.0000000E+000	6.16559	9.25694	83.8344
142.492	152.792	19.0127	153.97	-7.09317	09/05/2018 13:41:42.4633	-0.00455231	0.00257984	58.7469	0.895778	1	11	0.0211092	0.000137099	0.00644506	0.000801994	0.00649477	7.09317	895.777	7198.73	7254.25	-82.9068	0.0000000E+000	0.0000000E+000	0.0000000E+000	82.9068	0.0000000E+000	0.0000000E+000	0.0000000E+000	-82.9068	0.0000000E+000	0.0000000E+000	0.0000000E+000	-7.09317	0.0000000E+000	0.0000000E+000	0.0000000E+000	7.09317	8.03629	82.9068
106.673	155.647	22.2332	157.227	-8.12933	09/05/2018 13:41:44.1246	-0.00455464	0.00256958	67.1066	1.34188	1	11	0.0210981	0.000134188	0.0062963	0.000899385	0.00636022	8.12933	1341.88	9394.05	9489.4	-81.8707	0.0000000E+000	0.0000000E+000	0.0000000E+000	81.8707	0.0000000E+000	0.0000000E+000	0.0000000E+000	-81.8707	0.0000000E+000	0.0000000E+000	0.0000000E+000	-8.12933	0.0000000E+000	0.0000000E+000	0.0000000E+000	8.12933	7.00067	81.8707
79.8212	158.909	26.083	161.035	-9.32129	09/05/2018 13:41:45.8162	-0.00455395	0.00259308	76.4442	2.00547	1	11	0.02108	0.000130903	0.00612782	0.00100581	0.00620981	9.32129	2005.47	12218.2	12381.7	-80.6787	0.0000000E+000	0.0000000E+000	0.0000000E+000	80.6787	0.0000000E+000	0.0000000E+000	0.0000000E+000	-80.6787	0.0000000E+000	0.0000000E+000	0.0000000E+000	-9.32129	0.0000000E+000	0.0000000E+000	0.0000000E+000	9.32129	6.09244	80.6787
59.7895	162.699	30.6804	165.566	-10.679	09/05/2018 13:41:47.5094	-0.0045549	0.00272978	86.7628	2.9793	1	11	0.0210785	0.000127312	0.00593528	0.00111923	0.00603988	10.679	2979.3	15799.2	16077.7	-79.321	0.0000000E+000	0.0000000E+000	0.0000000E+000	79.321	0.0000000E+000	0.0000000E+000	0.0000000E+000	-79.321	0.0000000E+000	0.0000000E+000	0.0000000E+000	-10.679	0.0000000E+000	0.0000000E+000	0.0000000E+000	10.679	5.30301	79.321
44.728	167.262	35.9932	171.091	-12.1443	09/05/2018 13:41:49.2060	-0.00454207	0.00261546	98.8598	4.37528	1	11	0.0210836	0.00012323	0.00571403	0.0012296	0.00584484	12.1443	4375.28	20332.1	20797.6	-77.8557	0.0000000E+000	0.0000000E+000	0.0000000E+000	77.8557	0.0000000E+000	0.0000000E+000	0.0000000E+000	-77.8557	0.0000000E+000	0.0000000E+000	0.0000000E+000	-12.1443	0.0000000E+000	0.0000000E+000	0.0000000E+000	12.1443	4.64705	77.8557
33.4276	172.85	42.0367	177.888	-13.6688	09/05/2018 13:41:51.2242	-0.00454614	0.000155584	113.263	6.32482	1	12	0.0211012	0.00011862	0.00546229	0.00132841	0.0056215	13.6688	6324.82	26007	26765	-76.3312	0.0000000E+000	0.0000000E+000	0.0000000E+000	76.3312	0.0000000E+000	0.0000000E+000	0.0000000E+000	-76.3312	0.0000000E+000	0.0000000E+000	0.0000000E+000	-13.6688	0.0000000E+000	0.0000000E+000	0.0000000E+000	13.6688	4.11189	76.3312
25.0401	179.225	49.3526	185.896	-15.3958	09/05/2018 13:41:52.9084	-0.00455564	0.000235913	128.788	9.0773	1	12	0.0211053	0.000113533	0.00518633	0.00142814	0.00537937	15.3958	9077.3	32964.4	34191.3	-74.6042	0.0000000E+000	0.0000000E+000	0.0000000E+000	74.6042	0.0000000E+000	0.0000000E+000	0.0000000E+000	-74.6042	0.0000000E+000	0.0000000E+000	0.0000000E+000	-15.3958	0.0000000E+000	0.0000000E+000	0.0000000E+000	15.3958	3.63151	74.6042
18.735	186.446	57.7914	195.197	-17.2215	09/05/2018 13:41:54.7023	-0.00454789	0.000234682	146.995	12.8849	1	12	0.0210847	0.000108017	0.00489335	0.00151676	0.00512303	17.2215	12885	41569.3	43520.4	-72.7785	0.0000000E+000	0.0000000E+000	0.0000000E+000	72.7785	0.0000000E+000	0.0000000E+000	0.0000000E+000	-72.7785	0.0000000E+000	0.0000000E+000	0.0000000E+000	-17.2215	0.0000000E+000	0.0000000E+000	0.0000000E+000	17.2215	3.22619	72.7785
14.0176	195.385	67.4508	206.7	-19.0457	09/05/2018 13:41:56.5008	-0.00455865	0.000210877	168.329	17.9247	1	12	0.0210923	0.000102043	0.0045731	0.00157873	0.00483794	19.0457	17924.7	51922.5	54929.5	-70.9543	0.0000000E+000	0.0000000E+000	0.0000000E+000	70.9543	0.0000000E+000	0.0000000E+000	0.0000000E+000	-70.9543	0.0000000E+000	0.0000000E+000	0.0000000E+000	-19.0457	0.0000000E+000	0.0000000E+000	0.0000000E+000	19.0457	2.8967	70.9543
10.5007	205.616	78.421	220.063	-20.8766	09/05/2018 13:41:58.1132	-0.00456418	5.65697e-05	193.273	24.5437	1	12	0.0210892	9.58323e-05	0.00424582	0.00161934	0.00454415	20.8766	24543.7	64352.4	68874	-69.1234	0.0000000E+000	0.0000000E+000	0.0000000E+000	69.1234	0.0000000E+000	0.0000000E+000	0.0000000E+000	-69.1234	0.0000000E+000	0.0000000E+000	0.0000000E+000	-20.8766	0.0000000E+000	0.0000000E+000	0.0000000E+000	20.8766	2.62195	69.1234
7.85965	217.467	90.7847	235.656	-22.6588	09/05/2018 13:42:00.2312	-0.00455269	0.000129196	223.051	33.1034	1	12	0.0210939	8.95115e-05	0.00391594	0.00163477	0.00424348	22.6588	33103.4	79296.4	85928.7	-67.3412	0.0000000E+000	0.0000000E+000	0.0000000E+000	67.3412	0.0000000E+000	0.0000000E+000	0.0000000E+000	-67.3412	0.0000000E+000	0.0000000E+000	0.0000000E+000	-22.6588	0.0000000E+000	0.0000000E+000	0.0000000E+000	22.6588	2.39541	67.3412
5.88291	229.363	105.026	252.266	-24.6032	09/05/2018 13:42:01.6817	-0.00454518	0.000147761	257.592	44.6487	1	12	0.0210913	8.36077e-05	0.00360419	0.00165037	0.00396408	24.6032	44648.7	97507.1	107243	-65.3968	0.0000000E+000	0.0000000E+000	0.0000000E+000	65.3968	0.0000000E+000	0.0000000E+000	0.0000000E+000	-65.3968	0.0000000E+000	0.0000000E+000	0.0000000E+000	-24.6032	0.0000000E+000	0.0000000E+000	0.0000000E+000	24.6032	2.18387	65.3968
4.39893	242.101	120.699	270.52	-26.4984	09/05/2018 13:42:03.5881	-0.0045569	0.000334311	299.758	59.6729	1	12	0.0210841	7.79391e-05	0.00330825	0.00164932	0.00369659	26.4984	59672.9	119694	133744	-63.5016	0.0000000E+000	0.0000000E+000	0.0000000E+000	63.5016	0.0000000E+000	0.0000000E+000	0.0000000E+000	-63.5016	0.0000000E+000	0.0000000E+000	0.0000000E+000	-26.4984	0.0000000E+000	0.0000000E+000	0.0000000E+000	26.4984	2.00583	63.5016
3.29363	253.886	142.216	291.004	-29.2557	09/05/2018 13:42:06.0984	-0.00457691	-4.06455e-05	339.78	81.1513	1	12	0.0210786	7.2434e-05	0.00299806	0.00167939	0.00343638	29.2557	81151.3	144872	166053	-60.7443	0.0000000E+000	0.0000000E+000	0.0000000E+000	60.7443	0.0000000E+000	0.0000000E+000	0.0000000E+000	-60.7443	0.0000000E+000	0.0000000E+000	0.0000000E+000	-29.2557	0.0000000E+000	0.0000000E+000	0.0000000E+000	29.2557	1.78521	60.7443
2.46607	265.895	168.485	314.781	-32.3606	09/05/2018 13:42:09.4213	-0.00453734	0.000141627	383.048	109.739	1	12	0.0210821	6.69739e-05	0.00268344	0.00170037	0.00317681	32.3606	109739	173184	205025	-57.6394	0.0000000E+000	0.0000000E+000	0.0000000E+000	57.6394	0.0000000E+000	0.0000000E+000	0.0000000E+000	-57.6394	0.0000000E+000	0.0000000E+000	0.0000000E+000	-32.3606	0.0000000E+000	0.0000000E+000	0.0000000E+000	32.3606	1.57815	57.6394
1.84257	275.603	206.12	344.155	-36.7923	09/05/2018 13:42:13.8377	-0.00455064	0.000271964	419.06	150.317	1	12	0.0210813	6.12552e-05	0.00232689	0.00174025	0.00290567	36.7923	150317	200989	250982	-53.2077	0.0000000E+000	0.0000000E+000	0.0000000E+000	53.2077	0.0000000E+000	0.0000000E+000	0.0000000E+000	-53.2077	0.0000000E+000	0.0000000E+000	0.0000000E+000	-36.7923	0.0000000E+000	0.0000000E+000	0.0000000E+000	36.7923	1.3371	53.2077
1.38128	284.831	255.491	382.628	-41.8919	09/05/2018 13:42:19.7030	-0.00453514	0.00034591	450.987	201.077	1	12	0.0210814	5.50963e-05	0.00194551	0.00174511	0.0026135	41.8919	201077	224168	301136	-48.1081	0.0000000E+000	0.0000000E+000	0.0000000E+000	48.1081	0.0000000E+000	0.0000000E+000	0.0000000E+000	-48.1081	0.0000000E+000	0.0000000E+000	0.0000000E+000	-41.8919	0.0000000E+000	0.0000000E+000	0.0000000E+000	41.8919	1.11484	48.1081
1.0334	294.819	323.43	437.636	-47.6497	09/05/2018 13:42:28.5310	-0.00454827	5.51178e-05	476.18	260.08	1	13	0.0210897	4.819e-05	0.00153932	0.00168871	0.002285	47.6497	260080	237072	351916	-42.3503	0.0000000E+000	0.0000000E+000	0.0000000E+000	42.3503	0.0000000E+000	0.0000000E+000	0.0000000E+000	-42.3503	0.0000000E+000	0.0000000E+000	0.0000000E+000	-47.6497	0.0000000E+000	0.0000000E+000	0.0000000E+000	47.6497	0.911537	42.3503
0.773208	305.471	414.397	514.818	-53.6043	09/05/2018 13:42:38.9527	-0.00453992	4.12384e-05	496.715	321.835	1	13	0.0210787	4.09439e-05	0.00115256	0.00156354	0.00194243	53.6043	321835	237239	399825	-36.3957	0.0000000E+000	0.0000000E+000	0.0000000E+000	36.3957	0.0000000E+000	0.0000000E+000	0.0000000E+000	-36.3957	0.0000000E+000	0.0000000E+000	0.0000000E+000	-53.6043	0.0000000E+000	0.0000000E+000	0.0000000E+000	53.6043	0.737147	36.3957
0.578532	318.089	536.484	623.696	-59.3357	09/05/2018 13:42:52.8552	-0.00454822	5.32669e-05	512.785	379.406	1	13	0.0210804	3.37991e-05	0.000817718	0.00137915	0.00160335	59.3357	379406	224955	441083	-30.6643	0.0000000E+000	0.0000000E+000	0.0000000E+000	30.6643	0.0000000E+000	0.0000000E+000	0.0000000E+000	-30.6643	0.0000000E+000	0.0000000E+000	0.0000000E+000	-59.3357	0.0000000E+000	0.0000000E+000	0.0000000E+000	59.3357	0.592915	30.6643
0.433065	334.13	699.283	775.009	-64.4607	09/05/2018 13:43:11.4040	-0.00453954	7.67049e-05	525.55	427.864	1	13	0.0210797	2.71992e-05	0.000556291	0.00116423	0.00129031	64.4607	427864	204441	474198	-25.5393	0.0000000E+000	0.0000000E+000	0.0000000E+000	25.5393	0.0000000E+000	0.0000000E+000	0.0000000E+000	-25.5393	0.0000000E+000	0.0000000E+000	0.0000000E+000	-64.4607	0.0000000E+000	0.0000000E+000	0.0000000E+000	64.4607	0.477818	25.5393
0.323901	353.842	915.492	981.494	-68.8683	09/05/2018 13:43:36.1821	-0.00453806	4.55599e-05	536.726	466.968	1	13	0.0210796	2.14771e-05	0.000367311	0.000950341	0.00101885	68.8683	466968	180485	500633	-21.1317	0.0000000E+000	0.0000000E+000	0.0000000E+000	21.1317	0.0000000E+000	0.0000000E+000	0.0000000E+000	-21.1317	0.0000000E+000	0.0000000E+000	0.0000000E+000	-68.8683	0.0000000E+000	0.0000000E+000	0.0000000E+000	68.8683	0.386504	21.1317
0.242323	377.777	1200.9	1258.92	-72.5375	09/05/2018 13:44:09.2805	-0.0045436	3.9892e-05	546.914	497.665	1	13	0.0210794	1.67441e-05	0.000238365	0.000757726	0.000794334	72.5375	497665	156555	521709	-17.4625	0.0000000E+000	0.0000000E+000	0.0000000E+000	17.4625	0.0000000E+000	0.0000000E+000	0.0000000E+000	-17.4625	0.0000000E+000	0.0000000E+000	0.0000000E+000	-72.5375	0.0000000E+000	0.0000000E+000	0.0000000E+000	72.5375	0.314579	17.4625
0.181534	409.686	1575.9	1628.28	-75.4274	09/05/2018 13:44:53.4417	-0.00453942	3.82751e-05	556.332	521.113	1	13	0.0210827	1.29479e-05	0.000154523	0.000594387	0.000614145	75.4274	521113	135474	538434	-14.5726	0.0000000E+000	0.0000000E+000	0.0000000E+000	14.5726	0.0000000E+000	0.0000000E+000	0.0000000E+000	-14.5726	0.0000000E+000	0.0000000E+000	0.0000000E+000	-75.4274	0.0000000E+000	0.0000000E+000	0.0000000E+000	75.4274	0.25997	14.5726
0.135846	456.731	2070.44	2120.21	-77.56	09/05/2018 13:45:52.4342	-0.00453503	2.58288e-05	565.864	539.605	1	13	0.0210799	9.94236e-06	0.000101602	0.000460577	0.000471651	77.56	539605	119035	552578	-12.44	0.0000000E+000	0.0000000E+000	0.0000000E+000	12.44	0.0000000E+000	0.0000000E+000	0.0000000E+000	-12.44	0.0000000E+000	0.0000000E+000	0.0000000E+000	-77.56	0.0000000E+000	0.0000000E+000	0.0000000E+000	77.56	0.220596	12.44
0.101725	512.161	2723.58	2771.32	-79.3501	09/05/2018 13:47:11.1934	-0.00453496	4.15338e-05	574.449	554.829	1	13	0.0210842	7.60801e-06	6.66859e-05	0.000354624	0.000360839	79.3501	554829	104334	564554	-10.6499	0.0000000E+000	0.0000000E+000	0.0000000E+000	10.6499	0.0000000E+000	0.0000000E+000	0.0000000E+000	-10.6499	0.0000000E+000	0.0000000E+000	0.0000000E+000	-79.3501	0.0000000E+000	0.0000000E+000	0.0000000E+000	79.3501	0.188047	10.6499
0.0761037	596.712	3582.27	3631.62	-80.5429	09/05/2018 13:48:56.4474	-0.00453765	3.89495e-05	583.79	568.029	1	13	0.02108	5.80455e-06	4.52442e-05	0.000271616	0.000275359	80.5429	568029	94618.8	575856	-9.45715	0.0000000E+000	0.0000000E+000	0.0000000E+000	9.45715	0.0000000E+000	0.0000000E+000	0.0000000E+000	-9.45715	0.0000000E+000	0.0000000E+000	0.0000000E+000	-80.5429	0.0000000E+000	0.0000000E+000	0.0000000E+000	80.5429	0.166574	9.45715
0.0569665	704.514	4703.54	4756.01	-81.4813	09/05/2018 13:51:34.6562	-0.00454504	8.63938e-06	593.985	580.951	1	14	0.0210721	4.43062e-06	3.11461e-05	0.000207941	0.00021026	81.4813	580951	87017.1	587432	-8.51865	0.0000000E+000	0.0000000E+000	0.0000000E+000	8.51865	0.0000000E+000	0.0000000E+000	0.0000000E+000	-8.51865	0.0000000E+000	0.0000000E+000	0.0000000E+000	-81.4813	0.0000000E+000	0.0000000E+000	0.0000000E+000	81.4813	0.149784	8.51865
0.0426446	853.352	6186.53	6245.1	-82.1463	09/05/2018 13:54:42.4446	-0.00454403	1.37118e-05	603.266	592.002	1	14	0.021078	3.37512e-06	2.18801e-05	0.000158624	0.000160125	82.1463	592002	81659	597607	-7.85365	0.0000000E+000	0.0000000E+000	0.0000000E+000	7.85365	0.0000000E+000	0.0000000E+000	0.0000000E+000	-7.85365	0.0000000E+000	0.0000000E+000	0.0000000E+000	-82.1463	0.0000000E+000	0.0000000E+000	0.0000000E+000	82.1463	0.137937	7.85365
0.0319138	1062.84	8134.34	8203.48	-82.5559	09/05/2018 13:58:53.3549	-0.00453935	7.52487e-06	613.083	602.792	1	14	0.021078	2.56939e-06	1.57932e-05	0.000120872	0.000121899	82.5559	602792	78761	607916	-7.44411	0.0000000E+000	0.0000000E+000	0.0000000E+000	7.44411	0.0000000E+000	0.0000000E+000	0.0000000E+000	-7.44411	0.0000000E+000	0.0000000E+000	0.0000000E+000	-82.5559	0.0000000E+000	0.0000000E+000	0.0000000E+000	82.5559	0.13066	7.44412
0.0238768	1348.26	10694.7	10779.4	-82.8147	09/05/2018 14:04:28.7016	-0.00453867	9.80525e-06	623.267	613.516	1	14	0.0210807	1.95565e-06	1.16035e-05	9.20412e-05	9.27697e-05	82.8147	613516	77344.8	618372	-7.18526	0.0000000E+000	0.0000000E+000	0.0000000E+000	7.18526	0.0000000E+000	0.0000000E+000	0.0000000E+000	-7.18526	0.0000000E+000	0.0000000E+000	0.0000000E+000	-82.8147	0.0000000E+000	0.0000000E+000	0.0000000E+000	82.8147	0.126068	7.18527
0.0178412	1749.32	14049.7	14158.2	-82.9027	09/05/2018 14:11:57.4754	-0.0045433	8.8855e-06	634.937	625.244	1	14	0.02108	1.48889e-06	8.72679e-06	7.00894e-05	7.06306e-05	82.9027	625244	77848.8	630072	-7.09734	0.0000000E+000	0.0000000E+000	0.0000000E+000	7.09734	0.0000000E+000	0.0000000E+000	0.0000000E+000	-7.09734	0.0000000E+000	0.0000000E+000	0.0000000E+000	-82.9027	0.0000000E+000	0.0000000E+000	0.0000000E+000	82.9027	0.124509	7.09735
0.0133776	2308.08	18375.5	18519.9	-82.8408	09/05/2018 14:21:55.9678	-0.00454565	9.67139e-06	647.446	637.39	1	14	0.0210805	1.13826e-06	6.72937e-06	5.3575e-05	5.3996e-05	82.8408	637390	80060.3	642398	-7.15923	0.0000000E+000	0.0000000E+000	0.0000000E+000	7.15923	0.0000000E+000	0.0000000E+000	0.0000000E+000	-7.15923	0.0000000E+000	0.0000000E+000	0.0000000E+000	-82.8408	0.0000000E+000	0.0000000E+000	0.0000000E+000	82.8408	0.125606	7.15923
0.0100058	3073.06	24124.2	24319.2	-82.7405	09/05/2018 14:35:16.1236	-0.00454159	6.16316e-06	659.351	648.823	1	14	0.02108	8.66807e-07	5.19607e-06	4.07902e-05	4.11198e-05	82.7405	648823	82650.3	654066	-7.25953	0.0000000E+000	0.0000000E+000	0.0000000E+000	7.25953	0.0000000E+000	0.0000000E+000	0.0000000E+000	-7.25953	0.0000000E+000	0.0000000E+000	0.0000000E+000	-82.7405	0.0000000E+000	0.0000000E+000	0.0000000E+000	82.7405	0.127385	7.25952