File: exp data/EIS mpt files/single type poluted/RM_stacked second run D12_1_C03.mpt
EC-Lab ASCII FILE
Nb header lines : 66

Potentio Electrochemical Impedance Spectroscopy

Run on channel : 3 (SN 13993)
User :
CE vs. WE compliance from -10 V to 10 V
Electrode connection : standard
Potential control : Ewe
Ewe ctrl range : min = -1.00 V, max = 1.00 V
Safety Limits :
	Do not start on E overload
Acquisition started on : 09/05/2018 15:23:15.000
Loaded Setting File : NONE
Saved on :
	File : RM_stacked second run D12_1_C03.mpr
	Directory : D:\Robert\Stacked cells\Second run 3% and 12% PVDF electrodes 12%compressed\
	Host : 10.5.5.6
Device : VMP3 (SN 0628)
Address : 10.5.5.5
EC-Lab for windows v11.17 (software)
Internet server v11.16 (firmware)
Command interpretor v11.16 (firmware)
Electrode material :
Initial state :
Electrolyte :
Comments :
Electrode surface area : 0.001 cm²
Characteristic mass : 0.001 g
Equivalent Weight : 0.000 g/eq.
Density : 0.000 g/cm3
Volume (V) : 0.000 m³
Text export
   Mode : Standard
   Time format : Elapsed
Cycle Definition : Charge/Discharge alternance
Mode                Single sine
E (V)               0.0000
vs.                 Eoc
tE (h:m:s)          0:00:3.0000
record              1
dI                  0.000
unit dI             mA
dt (s)              60.000
fi                  200.000
unit fi             kHz
ff                  10.000
unit ff             mHz
Nd                  8
Points              per decade
spacing             Logarithmic
Va (mV)             20.0
pw                  3.00
Na                  5
corr                0
E range min (V)     -1.000
E range max (V)     1.000
I Range             Auto
Bandwidth           5
nc cycles           0
goto Ns'            0
nr cycles           0
inc. cycle          0

freq/Hz	Re(Z)/Ohm	-Im(Z)/Ohm	|Z|/Ohm	Phase(Z)/deg	time/s	<Ewe>/V	<I>/mA	Cs/µF	Cp/µF	cycle number	I Range	|Ewe|/V	|I|/A	Re(Y)/Ohm-1	Im(Y)/Ohm-1	|Y|/Ohm-1	Phase(Y)/deg	Re(C)/nF	Im(C)/nF	|C|/nF	Phase(C)/deg	Re(M)	Im(M)	|M|	Phase(M)/deg	Re(Permittivity)	Im(Permittivity)	|Permittivity|	Phase(Permittivity)/deg	Re(Resistivity)/Ohm.cm	Im(Resistivity)/Ohm.cm	|Resistivity|/Ohm.cm	Phase(Resistivity)/deg	Re(Conductivity)/mS/cm	Im(Conductivity)/mS/cm	|Conductivity|/mS/cm	Phase(Conductivity)/deg	Tan(Delta)	Loss Angle(Delta)/deg
200019	140.98	1.49513	140.987	-0.607617	09/05/2018 15:23:20.3321	0.00855613	0.00255235	0.532192	5.98503e-05	1	11	0.0181207	0.000128527	0.00709243	7.52174e-05	0.00709283	0.607617	0.0598506	5.64343	5.64374	-89.3924	0.0000000E+000	0.0000000E+000	0.0000000E+000	89.3924	0.0000000E+000	0.0000000E+000	0.0000000E+000	-89.3924	0.0000000E+000	0.0000000E+000	0.0000000E+000	-0.607617	0.0000000E+000	0.0000000E+000	0.0000000E+000	0.607617	94.2924	89.3924
149678	140.614	1.4903	140.622	-0.607229	09/05/2018 15:23:21.3961	0.00855435	0.00237914	0.713491	8.01368e-05	1	11	0.0205276	0.000145977	0.00711087	7.53649e-05	0.00711127	0.607229	0.0801371	7.56112	7.56154	-89.3928	0.0000000E+000	0.0000000E+000	0.0000000E+000	89.3928	0.0000000E+000	0.0000000E+000	0.0000000E+000	-89.3928	0.0000000E+000	0.0000000E+000	0.0000000E+000	-0.607229	0.0000000E+000	0.0000000E+000	0.0000000E+000	0.607229	94.3526	89.3928
112012	140.533	1.51156	140.541	-0.616246	09/05/2018 15:23:22.4601	0.00856517	0.0023715	0.940006	0.000108737	1	11	0.0207488	0.000147635	0.00711494	7.65278e-05	0.00711536	0.616246	0.108737	10.1095	10.1101	-89.3838	0.0000000E+000	0.0000000E+000	0.0000000E+000	89.3838	0.0000000E+000	0.0000000E+000	0.0000000E+000	-89.3838	0.0000000E+000	0.0000000E+000	0.0000000E+000	-0.616246	0.0000000E+000	0.0000000E+000	0.0000000E+000	0.616246	92.972	89.3838
83828.1	140.606	1.53295	140.615	-0.62464	09/05/2018 15:23:23.5251	0.00860158	0.0024082	1.23852	0.000147197	1	11	0.0206745	0.000147029	0.00711121	7.75296e-05	0.00711163	0.62464	0.147197	13.5013	13.5021	-89.3754	0.0000000E+000	0.0000000E+000	0.0000000E+000	89.3754	0.0000000E+000	0.0000000E+000	0.0000000E+000	-89.3754	0.0000000E+000	0.0000000E+000	0.0000000E+000	-0.62464	0.0000000E+000	0.0000000E+000	0.0000000E+000	0.62464	91.7225	89.3754
62734.4	140.709	1.59736	140.718	-0.650404	09/05/2018 15:23:24.5901	0.0086062	0.00237113	1.58823	0.000204652	1	11	0.020663	0.000146839	0.00710593	8.06679e-05	0.00710639	0.650404	0.204652	18.0275	18.0287	-89.3496	0.0000000E+000	0.0000000E+000	0.0000000E+000	89.3496	0.0000000E+000	0.0000000E+000	0.0000000E+000	-89.3496	0.0000000E+000	0.0000000E+000	0.0000000E+000	-0.650404	0.0000000E+000	0.0000000E+000	0.0000000E+000	0.650404	88.0888	89.3496
46953.1	140.874	1.57352	140.882	-0.63995	09/05/2018 15:23:25.6551	0.00861682	0.00238529	2.15419	0.000268728	1	11	0.0204886	0.00014543	0.00709767	7.92789e-05	0.00709812	0.63995	0.26873	24.0587	24.0602	-89.36	0.0000000E+000	0.0000000E+000	0.0000000E+000	89.36	0.0000000E+000	0.0000000E+000	0.0000000E+000	-89.36	0.0000000E+000	0.0000000E+000	0.0000000E+000	-0.63995	0.0000000E+000	0.0000000E+000	0.0000000E+000	0.63995	89.528	89.36
35136.7	141.096	1.63566	141.105	-0.664177	09/05/2018 15:23:26.7201	0.00861512	0.00239255	2.76927	0.000372107	1	11	0.0204318	0.000144798	0.00708644	8.21503e-05	0.00708692	0.664177	0.372107	32.0987	32.1009	-89.3358	0.0000000E+000	0.0000000E+000	0.0000000E+000	89.3358	0.0000000E+000	0.0000000E+000	0.0000000E+000	-89.3358	0.0000000E+000	0.0000000E+000	0.0000000E+000	-0.664177	0.0000000E+000	0.0000000E+000	0.0000000E+000	0.664177	86.2619	89.3358
26298.8	141.26	1.74612	141.271	-0.708201	09/05/2018 15:23:27.7851	0.00862835	0.0024678	3.46585	0.000529486	1	11	0.0202971	0.000143676	0.00707807	8.74925e-05	0.00707861	0.708201	0.529485	42.835	42.8383	-89.2918	0.0000000E+000	0.0000000E+000	0.0000000E+000	89.2918	0.0000000E+000	0.0000000E+000	0.0000000E+000	-89.2918	0.0000000E+000	0.0000000E+000	0.0000000E+000	-0.708201	0.0000000E+000	0.0000000E+000	0.0000000E+000	0.708201	80.8992	89.2918
19677.7	141.478	1.81757	141.489	-0.736042	09/05/2018 15:23:28.8501	0.00859532	0.00236089	4.44993	0.000734327	1	11	0.0202078	0.000142822	0.00706709	9.07914e-05	0.00706767	0.736042	0.734331	57.1591	57.1638	-89.264	0.0000000E+000	0.0000000E+000	0.0000000E+000	89.264	0.0000000E+000	0.0000000E+000	0.0000000E+000	-89.264	0.0000000E+000	0.0000000E+000	0.0000000E+000	-0.736042	0.0000000E+000	0.0000000E+000	0.0000000E+000	0.736042	77.8388	89.264
14726.6	141.765	2.03063	141.78	-0.820641	09/05/2018 15:23:29.7891	0.00858583	0.0022754	5.32217	0.00109174	1	11	0.0212793	0.000150087	0.00705246	0.000101018	0.00705318	0.820641	1.09174	76.2184	76.2262	-89.1794	0.0000000E+000	0.0000000E+000	0.0000000E+000	89.1794	0.0000000E+000	0.0000000E+000	0.0000000E+000	-89.1794	0.0000000E+000	0.0000000E+000	0.0000000E+000	-0.820641	0.0000000E+000	0.0000000E+000	0.0000000E+000	0.820641	69.8136	89.1794
11025.4	142.073	2.23089	142.09	-0.899611	09/05/2018 15:23:30.7281	0.00860325	0.00238361	6.47065	0.00159506	1	11	0.0219539	0.000154507	0.00703692	0.000110497	0.00703779	0.899611	1.59506	101.58	101.593	-89.1004	0.0000000E+000	0.0000000E+000	0.0000000E+000	89.1004	0.0000000E+000	0.0000000E+000	0.0000000E+000	-89.1004	0.0000000E+000	0.0000000E+000	0.0000000E+000	-0.899611	0.0000000E+000	0.0000000E+000	0.0000000E+000	0.899611	63.6842	89.1004
8325.19	142.32	2.46972	142.341	-0.994173	09/05/2018 15:23:31.9646	0.00862826	0.00243278	7.74067	0.00233031	1	11	0.0202478	0.000142248	0.00702433	0.000121896	0.00702539	0.994173	2.33031	134.286	134.306	-89.0058	0.0000000E+000	0.0000000E+000	0.0000000E+000	89.0058	0.0000000E+000	0.0000000E+000	0.0000000E+000	-89.0058	0.0000000E+000	0.0000000E+000	0.0000000E+000	-0.994173	0.0000000E+000	0.0000000E+000	0.0000000E+000	0.994173	57.6258	89.0058
6195.49	142.699	2.8098	142.726	-1.12803	09/05/2018 15:23:33.3799	0.00863288	0.00216477	9.1426	0.00354332	1	11	0.0204688	0.000143413	0.00700505	0.000137932	0.00700641	1.12803	3.54331	179.952	179.987	-88.872	0.0000000E+000	0.0000000E+000	0.0000000E+000	88.872	0.0000000E+000	0.0000000E+000	0.0000000E+000	-88.872	0.0000000E+000	0.0000000E+000	0.0000000E+000	-1.12803	0.0000000E+000	0.0000000E+000	0.0000000E+000	1.12803	50.7862	88.872
4621.48	143.133	3.2307	143.169	-1.29303	09/05/2018 15:23:35.0677	0.00864044	0.00224728	10.6596	0.00542797	1	11	0.0205926	0.000143834	0.00698297	0.000157615	0.00698474	1.29303	5.42799	240.48	240.541	-88.707	0.0000000E+000	0.0000000E+000	0.0000000E+000	88.707	0.0000000E+000	0.0000000E+000	0.0000000E+000	-88.707	0.0000000E+000	0.0000000E+000	0.0000000E+000	-1.29303	0.0000000E+000	0.0000000E+000	0.0000000E+000	1.29303	44.3039	88.707
3456.11	143.62	3.68109	143.667	-1.46821	09/05/2018 15:23:36.7557	0.00863998	0.00224281	12.51	0.00821287	1	11	0.0206572	0.000143785	0.00695825	0.000178345	0.00696054	1.46821	8.21288	320.43	320.535	-88.5318	0.0000000E+000	0.0000000E+000	0.0000000E+000	88.5318	0.0000000E+000	0.0000000E+000	0.0000000E+000	-88.5318	0.0000000E+000	0.0000000E+000	0.0000000E+000	-1.46821	0.0000000E+000	0.0000000E+000	0.0000000E+000	1.46821	39.0156	88.5318
2585.83	144.19	4.2728	144.253	-1.69736	09/05/2018 15:23:38.4417	0.00863897	0.00218991	14.4048	0.0126382	1	11	0.0206957	0.000143468	0.00692922	0.000205335	0.00693227	1.69736	12.6381	426.487	426.674	-88.3026	0.0000000E+000	0.0000000E+000	0.0000000E+000	88.3026	0.0000000E+000	0.0000000E+000	0.0000000E+000	-88.3026	0.0000000E+000	0.0000000E+000	0.0000000E+000	-1.69736	0.0000000E+000	0.0000000E+000	0.0000000E+000	1.69736	33.746	88.3026
1935.62	144.875	4.92367	144.958	-1.94649	09/05/2018 15:23:40.1287	0.00863646	0.00219345	16.6998	0.0192665	1	11	0.0207172	0.000142918	0.00689456	0.000234317	0.00689854	1.94649	19.2666	566.9	567.228	-88.0535	0.0000000E+000	0.0000000E+000	0.0000000E+000	88.0535	0.0000000E+000	0.0000000E+000	0.0000000E+000	-88.0535	0.0000000E+000	0.0000000E+000	0.0000000E+000	-1.94649	0.0000000E+000	0.0000000E+000	0.0000000E+000	1.94649	29.4241	88.0535
1448.61	145.592	5.6825	145.703	-2.23513	09/05/2018 15:23:41.8179	0.00862766	0.00218265	19.3344	0.0294084	1	11	0.0207249	0.00014224	0.00685806	0.000267672	0.00686328	2.23513	29.4083	753.477	754.051	-87.7649	0.0000000E+000	0.0000000E+000	0.0000000E+000	87.7649	0.0000000E+000	0.0000000E+000	0.0000000E+000	-87.7649	0.0000000E+000	0.0000000E+000	0.0000000E+000	-2.23513	0.0000000E+000	0.0000000E+000	0.0000000E+000	2.23513	25.6212	87.7649
1083.96	146.491	6.56932	146.639	-2.56767	09/05/2018 15:23:43.5070	0.00863441	0.00220314	22.3505	0.044857	1	11	0.0207315	0.000141378	0.00681263	0.000305508	0.00681948	2.56767	44.857	1000.28	1001.29	-87.4323	0.0000000E+000	0.0000000E+000	0.0000000E+000	87.4323	0.0000000E+000	0.0000000E+000	0.0000000E+000	-87.4323	0.0000000E+000	0.0000000E+000	0.0000000E+000	-2.56767	0.0000000E+000	0.0000000E+000	0.0000000E+000	2.56767	22.2993	87.4323
811.298	147.485	7.60756	147.681	-2.95281	09/05/2018 15:23:45.1934	0.00863312	0.00214559	25.7866	0.0684282	1	11	0.0207324	0.000140386	0.00676236	0.000348815	0.00677135	2.95281	68.4281	1326.59	1328.36	-87.0472	0.0000000E+000	0.0000000E+000	0.0000000E+000	87.0472	0.0000000E+000	0.0000000E+000	0.0000000E+000	-87.0472	0.0000000E+000	0.0000000E+000	0.0000000E+000	-2.95281	0.0000000E+000	0.0000000E+000	0.0000000E+000	2.95281	19.3867	87.0472
607.527	148.599	8.78826	148.859	-3.38457	09/05/2018 15:23:46.8739	0.00862505	0.00211653	29.8093	0.103898	1	11	0.020734	0.000139286	0.00670605	0.0003966	0.00671777	3.38457	103.898	1756.8	1759.87	-86.6154	0.0000000E+000	0.0000000E+000	0.0000000E+000	86.6154	0.0000000E+000	0.0000000E+000	0.0000000E+000	-86.6154	0.0000000E+000	0.0000000E+000	0.0000000E+000	-3.38457	0.0000000E+000	0.0000000E+000	0.0000000E+000	3.38457	16.9088	86.6154
454.564	149.905	10.2053	150.252	-3.89458	09/05/2018 15:23:48.5629	0.00862835	0.00205246	34.3085	0.158273	1	11	0.0207337	0.000137993	0.00664011	0.000452046	0.00665548	3.89458	158.273	2324.88	2330.26	-86.1054	0.0000000E+000	0.0000000E+000	0.0000000E+000	86.1054	0.0000000E+000	0.0000000E+000	0.0000000E+000	-86.1054	0.0000000E+000	0.0000000E+000	0.0000000E+000	-3.89458	0.0000000E+000	0.0000000E+000	0.0000000E+000	3.89458	14.689	86.1054
340.109	151.456	11.9114	151.923	-4.49685	09/05/2018 15:23:50.2507	0.00862636	0.00216626	39.286	0.2415	1	11	0.0207371	0.000136497	0.006562	0.000516077	0.00658226	4.49685	241.5	3070.71	3080.19	-85.5032	0.0000000E+000	0.0000000E+000	0.0000000E+000	85.5032	0.0000000E+000	0.0000000E+000	0.0000000E+000	-85.5032	0.0000000E+000	0.0000000E+000	0.0000000E+000	-4.49685	0.0000000E+000	0.0000000E+000	0.0000000E+000	4.49685	12.7151	85.5032
254.43	153.17	13.8722	153.797	-5.17502	09/05/2018 15:23:51.9412	0.00863251	0.00213348	45.0927	0.366863	1	11	0.0207307	0.000134793	0.00647559	0.000586479	0.0065021	5.17502	366.864	4050.71	4067.29	-84.825	0.0000000E+000	0.0000000E+000	0.0000000E+000	84.825	0.0000000E+000	0.0000000E+000	0.0000000E+000	-84.825	0.0000000E+000	0.0000000E+000	0.0000000E+000	-5.17502	0.0000000E+000	0.0000000E+000	0.0000000E+000	5.17502	11.0415	84.825
190.549	155.264	16.16	156.102	-5.94201	09/05/2018 15:23:53.6232	0.00862859	0.00213478	51.6859	0.553907	1	11	0.0207339	0.000132823	0.00637164	0.000663167	0.00640605	5.94201	553.907	5321.88	5350.63	-84.058	0.0000000E+000	0.0000000E+000	0.0000000E+000	84.058	0.0000000E+000	0.0000000E+000	0.0000000E+000	-84.058	0.0000000E+000	0.0000000E+000	0.0000000E+000	-5.94201	0.0000000E+000	0.0000000E+000	0.0000000E+000	5.94201	9.60789	84.058
142.492	157.595	18.9254	158.727	-6.84779	09/05/2018 15:23:55.3373	0.00862798	0.00205339	59.018	0.839017	1	11	0.0207327	0.000130618	0.00625518	0.000751176	0.00630012	6.84779	839.017	6986.65	7036.84	-83.1522	0.0000000E+000	0.0000000E+000	0.0000000E+000	83.1522	0.0000000E+000	0.0000000E+000	0.0000000E+000	-83.1522	0.0000000E+000	0.0000000E+000	0.0000000E+000	-6.84779	0.0000000E+000	0.0000000E+000	0.0000000E+000	6.84779	8.32718	83.1522
106.673	160.395	22.1759	161.921	-7.87169	09/05/2018 15:23:56.9986	0.0086288	0.00205526	67.28	1.26195	1	11	0.0207314	0.000128034	0.00611766	0.000845815	0.00617585	7.87169	1261.95	9127.51	9214.34	-82.1283	0.0000000E+000	0.0000000E+000	0.0000000E+000	82.1283	0.0000000E+000	0.0000000E+000	0.0000000E+000	-82.1283	0.0000000E+000	0.0000000E+000	0.0000000E+000	-7.87169	0.0000000E+000	0.0000000E+000	0.0000000E+000	7.87169	7.23286	82.1283
79.8212	163.639	26.0188	165.694	-9.03448	09/05/2018 15:23:58.6902	0.00861952	0.0020465	76.6328	1.88962	1	11	0.020729	0.000125104	0.00596034	0.000947702	0.00603521	9.03448	1889.62	11884.3	12033.6	-80.9655	0.0000000E+000	0.0000000E+000	0.0000000E+000	80.9655	0.0000000E+000	0.0000000E+000	0.0000000E+000	-80.9655	0.0000000E+000	0.0000000E+000	0.0000000E+000	-9.03448	0.0000000E+000	0.0000000E+000	0.0000000E+000	9.03448	6.28925	80.9655
59.7895	167.498	30.5231	170.256	-10.3277	09/05/2018 15:24:00.3835	0.00862632	0.0020871	87.2099	2.80297	1	11	0.0207322	0.00012177	0.00577834	0.00105299	0.0058735	10.3277	2802.97	15381.5	15634.8	-79.6723	0.0000000E+000	0.0000000E+000	0.0000000E+000	79.6723	0.0000000E+000	0.0000000E+000	0.0000000E+000	-79.6723	0.0000000E+000	0.0000000E+000	0.0000000E+000	-10.3277	0.0000000E+000	0.0000000E+000	0.0000000E+000	10.3277	5.48757	79.6723
44.728	171.997	35.8405	175.692	-11.7708	09/05/2018 15:24:02.0800	0.00863277	0.00206736	99.281	4.13155	1	11	0.0207302	0.000117992	0.00557211	0.00116111	0.00569179	11.7708	4131.55	19827.1	20253	-78.2292	0.0000000E+000	0.0000000E+000	0.0000000E+000	78.2292	0.0000000E+000	0.0000000E+000	0.0000000E+000	-78.2292	0.0000000E+000	0.0000000E+000	0.0000000E+000	-11.7708	0.0000000E+000	0.0000000E+000	0.0000000E+000	11.7708	4.79896	78.2292
33.4276	177.364	42.0706	182.285	-13.3439	09/05/2018 15:24:04.0982	0.00862368	0.000162804	113.171	6.02825	1	12	0.0207432	0.000113795	0.0053378	0.00126612	0.00548591	13.3439	6028.25	25414.3	26119.4	-76.6561	0.0000000E+000	0.0000000E+000	0.0000000E+000	76.6561	0.0000000E+000	0.0000000E+000	0.0000000E+000	-76.6561	0.0000000E+000	0.0000000E+000	0.0000000E+000	-13.3439	0.0000000E+000	0.0000000E+000	0.0000000E+000	13.3439	4.21586	76.6561
25.0401	183.661	49.3531	190.177	-15.0411	09/05/2018 15:24:05.7844	0.00862362	0.000165757	128.786	8.67329	1	12	0.0207401	0.000109057	0.00507812	0.00136458	0.00525826	15.0411	8673.29	32276.6	33421.6	-74.9589	0.0000000E+000	0.0000000E+000	0.0000000E+000	74.9589	0.0000000E+000	0.0000000E+000	0.0000000E+000	-74.9589	0.0000000E+000	0.0000000E+000	0.0000000E+000	-15.0411	0.0000000E+000	0.0000000E+000	0.0000000E+000	15.0411	3.72137	74.9589
18.735	191.121	57.8773	199.693	-16.8479	09/05/2018 15:24:07.5783	0.00861937	0.000165617	146.777	12.3296	1	12	0.0207388	0.000103854	0.00479276	0.00145139	0.0050077	16.8479	12329.6	40714.7	42540.7	-73.1521	0.0000000E+000	0.0000000E+000	0.0000000E+000	73.1521	0.0000000E+000	0.0000000E+000	0.0000000E+000	-73.1521	0.0000000E+000	0.0000000E+000	0.0000000E+000	-16.8479	0.0000000E+000	0.0000000E+000	0.0000000E+000	16.8479	3.30218	73.1521
14.0176	199.884	67.7679	211.059	-18.7286	09/05/2018 15:24:09.3778	0.00862359	0.000170805	167.541	17.2727	1	12	0.0207351	9.8243e-05	0.00448713	0.0015213	0.00473801	18.7286	17272.7	50946.5	53794.9	-71.2714	0.0000000E+000	0.0000000E+000	0.0000000E+000	71.2714	0.0000000E+000	0.0000000E+000	0.0000000E+000	-71.2714	0.0000000E+000	0.0000000E+000	0.0000000E+000	-18.7286	0.0000000E+000	0.0000000E+000	0.0000000E+000	18.7286	2.94953	71.2714
10.5007	210.28	79.2255	224.71	-20.6445	09/05/2018 15:24:10.9902	0.00861872	0.000136232	191.31	23.7806	1	12	0.020736	9.22788e-05	0.00416442	0.00156899	0.00445018	20.6445	23780.6	63118.6	67449.8	-69.3555	0.0000000E+000	0.0000000E+000	0.0000000E+000	69.3555	0.0000000E+000	0.0000000E+000	0.0000000E+000	-69.3555	0.0000000E+000	0.0000000E+000	0.0000000E+000	-20.6445	0.0000000E+000	0.0000000E+000	0.0000000E+000	20.6445	2.6542	69.3555
7.85965	222.587	92.6559	241.102	-22.6004	09/05/2018 15:24:13.1092	0.00862664	0.000170218	218.546	32.2767	1	12	0.0207344	8.59987e-05	0.00382912	0.00159394	0.00414762	22.6004	32276.7	77538.1	83987.8	-67.3996	0.0000000E+000	0.0000000E+000	0.0000000E+000	67.3996	0.0000000E+000	0.0000000E+000	0.0000000E+000	-67.3996	0.0000000E+000	0.0000000E+000	0.0000000E+000	-22.6004	0.0000000E+000	0.0000000E+000	0.0000000E+000	22.6004	2.4023	67.3996
5.88291	237.25	107.963	260.659	-24.4683	09/05/2018 15:24:14.5597	0.00861794	0.000119746	250.585	42.9888	1	12	0.0207325	7.95385e-05	0.00349188	0.00158901	0.00383642	24.4683	42988.8	94468.5	103790	-65.5316	0.0000000E+000	0.0000000E+000	0.0000000E+000	65.5316	0.0000000E+000	0.0000000E+000	0.0000000E+000	-65.5316	0.0000000E+000	0.0000000E+000	0.0000000E+000	-24.4683	0.0000000E+000	0.0000000E+000	0.0000000E+000	24.4683	2.19752	65.5316
4.39893	254.737	125.562	284.002	-26.239	09/05/2018 15:24:16.4661	0.00861738	0.000195513	288.148	56.3234	1	12	0.0207325	7.30015e-05	0.00315828	0.00155674	0.00352111	26.239	56323.4	114268	127395	-63.761	0.0000000E+000	0.0000000E+000	0.0000000E+000	63.761	0.0000000E+000	0.0000000E+000	0.0000000E+000	-63.761	0.0000000E+000	0.0000000E+000	0.0000000E+000	-26.239	0.0000000E+000	0.0000000E+000	0.0000000E+000	26.239	2.02878	63.761
3.29363	275.206	145.366	311.239	-27.8434	09/05/2018 15:24:18.9764	0.00861968	0.000185818	332.416	72.5136	1	12	0.0207317	6.66101e-05	0.00284099	0.00150063	0.00321296	27.8434	72513.6	137282	155257	-62.1566	0.0000000E+000	0.0000000E+000	0.0000000E+000	62.1566	0.0000000E+000	0.0000000E+000	0.0000000E+000	-62.1566	0.0000000E+000	0.0000000E+000	0.0000000E+000	-27.8434	0.0000000E+000	0.0000000E+000	0.0000000E+000	27.8434	1.89319	62.1566
2.46607	299.282	166.942	342.694	-29.1532	09/05/2018 15:24:22.2984	0.00862591	0.000176114	386.589	91.7418	1	12	0.0207301	6.04916e-05	0.00254839	0.00142152	0.00291805	29.1532	91741.8	164468	188325	-60.8468	0.0000000E+000	0.0000000E+000	0.0000000E+000	60.8468	0.0000000E+000	0.0000000E+000	0.0000000E+000	-60.8468	0.0000000E+000	0.0000000E+000	0.0000000E+000	-29.1532	0.0000000E+000	0.0000000E+000	0.0000000E+000	29.1532	1.79273	60.8468
1.84257	326.359	190.216	377.747	-30.2355	09/05/2018 15:24:26.7147	0.00862987	0.000217974	454.097	115.144	1	12	0.0207286	5.48743e-05	0.00228715	0.00133305	0.00264728	30.2355	115144	197556	228663	-59.7645	0.0000000E+000	0.0000000E+000	0.0000000E+000	59.7645	0.0000000E+000	0.0000000E+000	0.0000000E+000	-59.7645	0.0000000E+000	0.0000000E+000	0.0000000E+000	-30.2355	0.0000000E+000	0.0000000E+000	0.0000000E+000	30.2355	1.71573	59.7645
1.38128	354.91	214.846	414.874	-31.1888	09/05/2018 15:24:32.5821	0.00862959	0.000223082	536.305	143.825	1	12	0.02073	4.9967e-05	0.00206199	0.00124823	0.00241037	31.1888	143825	237589	277731	-58.8112	0.0000000E+000	0.0000000E+000	0.0000000E+000	58.8112	0.0000000E+000	0.0000000E+000	0.0000000E+000	-58.8112	0.0000000E+000	0.0000000E+000	0.0000000E+000	-31.1888	0.0000000E+000	0.0000000E+000	0.0000000E+000	31.1888	1.65193	58.8112
1.0334	382.786	243.121	453.468	-32.4211	09/05/2018 15:24:41.4100	0.00862721	5.56617e-05	633.474	182.088	1	13	0.0207337	4.57226e-05	0.0018615	0.00118231	0.00220523	32.4211	182088	286692	339629	-57.5789	0.0000000E+000	0.0000000E+000	0.0000000E+000	57.5789	0.0000000E+000	0.0000000E+000	0.0000000E+000	-57.5789	0.0000000E+000	0.0000000E+000	0.0000000E+000	-32.4211	0.0000000E+000	0.0000000E+000	0.0000000E+000	32.4211	1.57446	57.5789
0.773208	407.889	278.555	493.93	-34.3299	09/05/2018 15:24:51.8317	0.00862938	5.36434e-05	738.946	235.02	1	13	0.0207312	4.1972e-05	0.00167191	0.00114178	0.00202458	34.3299	235020	344140	416734	-55.6701	0.0000000E+000	0.0000000E+000	0.0000000E+000	55.6701	0.0000000E+000	0.0000000E+000	0.0000000E+000	-55.6701	0.0000000E+000	0.0000000E+000	0.0000000E+000	-34.3299	0.0000000E+000	0.0000000E+000	0.0000000E+000	34.3299	1.4643	55.6701
0.578532	429.399	326.726	539.568	-37.2672	09/05/2018 15:25:05.7333	0.00862097	4.32666e-05	841.993	308.734	1	13	0.0207252	3.84108e-05	0.00147492	0.00112226	0.00185334	37.2672	308734	405753	509855	-52.7328	0.0000000E+000	0.0000000E+000	0.0000000E+000	52.7328	0.0000000E+000	0.0000000E+000	0.0000000E+000	-52.7328	0.0000000E+000	0.0000000E+000	0.0000000E+000	-37.2672	0.0000000E+000	0.0000000E+000	0.0000000E+000	37.2672	1.31425	52.7328
0.433065	447.577	393.682	596.08	-41.3343	09/05/2018 15:25:24.2821	0.00862418	4.00124e-05	933.515	407.196	1	13	0.0207288	3.47753e-05	0.00125968	0.00110799	0.00167763	41.3343	407196	462942	616542	-48.6657	0.0000000E+000	0.0000000E+000	0.0000000E+000	48.6657	0.0000000E+000	0.0000000E+000	0.0000000E+000	-48.6657	0.0000000E+000	0.0000000E+000	0.0000000E+000	-41.3343	0.0000000E+000	0.0000000E+000	0.0000000E+000	41.3343	1.1369	48.6657
0.323901	464.261	487.64	673.299	-46.4069	09/05/2018 15:25:49.0601	0.00859999	2.99904e-05	1007.65	528.557	1	13	0.0207307	3.07897e-05	0.00102411	0.00107568	0.00148522	46.4069	528557	503215	729793	-43.5931	0.0000000E+000	0.0000000E+000	0.0000000E+000	43.5931	0.0000000E+000	0.0000000E+000	0.0000000E+000	-43.5931	0.0000000E+000	0.0000000E+000	0.0000000E+000	-46.4069	0.0000000E+000	0.0000000E+000	0.0000000E+000	46.4069	0.952056	43.593
0.242323	480.018	616.479	781.322	-52.094	09/05/2018 15:26:22.1586	0.00859945	3.94346e-05	1065.39	663.259	1	13	0.0207295	2.65314e-05	0.000786318	0.00100985	0.00127988	52.094	663259	516444	840611	-37.906	0.0000000E+000	0.0000000E+000	0.0000000E+000	37.906	0.0000000E+000	0.0000000E+000	0.0000000E+000	-37.906	0.0000000E+000	0.0000000E+000	0.0000000E+000	-52.094	0.0000000E+000	0.0000000E+000	0.0000000E+000	52.094	0.778646	37.906
0.181534	497.339	791.382	934.683	-57.853	09/05/2018 15:27:06.3198	0.0086256	4.45846e-05	1107.84	794.182	1	13	0.0207348	2.21838e-05	0.000569277	0.000905853	0.00106988	57.853	794182	499098	937989	-32.147	0.0000000E+000	0.0000000E+000	0.0000000E+000	32.147	0.0000000E+000	0.0000000E+000	0.0000000E+000	-32.147	0.0000000E+000	0.0000000E+000	0.0000000E+000	-57.853	0.0000000E+000	0.0000000E+000	0.0000000E+000	57.853	0.628443	32.147
0.135846	516.903	1027.27	1149.99	-63.2894	09/05/2018 15:28:05.3126	0.00863027	4.44046e-05	1140.48	910.061	1	13	0.0207269	1.80235e-05	0.000390858	0.000776778	0.000869571	63.2894	910061	457923	1.01878e+06	-26.7106	0.0000000E+000	0.0000000E+000	0.0000000E+000	26.7106	0.0000000E+000	0.0000000E+000	0.0000000E+000	-26.7106	0.0000000E+000	0.0000000E+000	0.0000000E+000	-63.2894	0.0000000E+000	0.0000000E+000	0.0000000E+000	63.2894	0.503178	26.7106
0.101725	541.113	1341.65	1446.66	-68.0349	09/05/2018 15:29:24.0722	0.0085995	4.89292e-05	1166.14	1002.99	1	13	0.0207283	1.43284e-05	0.000258556	0.00064107	0.000691247	68.0349	1.00299e+06	404525	1.0815e+06	-21.9651	0.0000000E+000	0.0000000E+000	0.0000000E+000	21.9651	0.0000000E+000	0.0000000E+000	0.0000000E+000	-21.9651	0.0000000E+000	0.0000000E+000	0.0000000E+000	-68.0349	0.0000000E+000	0.0000000E+000	0.0000000E+000	68.0349	0.403319	21.9651
0.0761037	571.487	1760.81	1851.23	-72.0187	09/05/2018 15:31:09.3269	0.00863422	5.10869e-05	1187.69	1074.5	1	13	0.0207255	1.11955e-05	0.000166758	0.000513798	0.000540182	72.0187	1.0745e+06	348740	1.12968e+06	-17.9813	0.0000000E+000	0.0000000E+000	0.0000000E+000	17.9813	0.0000000E+000	0.0000000E+000	0.0000000E+000	-17.9813	0.0000000E+000	0.0000000E+000	0.0000000E+000	-72.0187	0.0000000E+000	0.0000000E+000	0.0000000E+000	72.0187	0.324559	17.9813
0.0569665	613.456	2313.37	2393.33	-75.1482	09/05/2018 15:33:29.9200	0.00863274	4.12324e-05	1207.69	1128.35	1	13	0.0207372	8.6646e-06	0.000107098	0.00040387	0.000417829	75.1482	1.12835e+06	299213	1.16734e+06	-14.8518	0.0000000E+000	0.0000000E+000	0.0000000E+000	14.8518	0.0000000E+000	0.0000000E+000	0.0000000E+000	-14.8518	0.0000000E+000	0.0000000E+000	0.0000000E+000	-75.1482	0.0000000E+000	0.0000000E+000	0.0000000E+000	75.1482	0.265179	14.8518
0.0426446	664.402	3050.78	3122.29	-77.7139	09/05/2018 15:36:37.7096	0.00863159	5.5856e-05	1223.33	1167.94	1	13	0.0207381	6.64196e-06	6.8153e-05	0.000312943	0.000320278	77.7139	1.16794e+06	254355	1.19532e+06	-12.2861	0.0000000E+000	0.0000000E+000	0.0000000E+000	12.2861	0.0000000E+000	0.0000000E+000	0.0000000E+000	-12.2861	0.0000000E+000	0.0000000E+000	0.0000000E+000	-77.7139	0.0000000E+000	0.0000000E+000	0.0000000E+000	77.7139	0.217781	12.2861
0.0319138	733.751	4020.8	4087.2	-79.658	09/05/2018 15:40:48.6218	0.00859876	5.5581e-05	1240.31	1200.33	1	13	0.0207313	5.07225e-06	4.39234e-05	0.000240691	0.000244666	79.658	1.20033e+06	219047	1.22016e+06	-10.342	0.0000000E+000	0.0000000E+000	0.0000000E+000	10.342	0.0000000E+000	0.0000000E+000	0.0000000E+000	-10.342	0.0000000E+000	0.0000000E+000	0.0000000E+000	-79.658	0.0000000E+000	0.0000000E+000	0.0000000E+000	79.658	0.182489	10.342
0.0238768	828.549	5302.25	5366.59	-81.1186	09/05/2018 15:47:05.9457	0.00861579	5.98577e-06	1257.14	1227.17	1	14	0.0207256	3.86196e-06	2.87687e-05	0.000184104	0.000186338	81.1186	1.22717e+06	191763	1.24207e+06	-8.88142	0.0000000E+000	0.0000000E+000	0.0000000E+000	8.88142	0.0000000E+000	0.0000000E+000	0.0000000E+000	-8.88142	0.0000000E+000	0.0000000E+000	0.0000000E+000	-81.1186	0.0000000E+000	0.0000000E+000	0.0000000E+000	81.1186	0.156264	8.88142
0.0178412	953.108	7007.29	7071.81	-82.2543	09/05/2018 15:54:34.7229	0.00863604	6.23654e-06	1273.06	1249.93	1	14	0.0207322	2.93167e-06	1.90582e-05	0.000140116	0.000141407	82.2543	1.24993e+06	170012	1.26144e+06	-7.74565	0.0000000E+000	0.0000000E+000	0.0000000E+000	7.74565	0.0000000E+000	0.0000000E+000	0.0000000E+000	-7.74565	0.0000000E+000	0.0000000E+000	0.0000000E+000	-82.2543	0.0000000E+000	0.0000000E+000	0.0000000E+000	82.2543	0.136017	7.74565
0.0133776	1123.34	9221.67	9289.84	-83.0547	09/05/2018 16:04:33.2198	0.00862368	5.22016e-06	1290.13	1271.27	1	14	0.0207288	2.23134e-06	1.30165e-05	0.000106855	0.000107644	83.0547	1.27127e+06	154860	1.28066e+06	-6.94528	0.0000000E+000	0.0000000E+000	0.0000000E+000	6.94528	0.0000000E+000	0.0000000E+000	0.0000000E+000	-6.94528	0.0000000E+000	0.0000000E+000	0.0000000E+000	-83.0547	0.0000000E+000	0.0000000E+000	0.0000000E+000	83.0547	0.121815	6.94528
0.0100058	1352.71	12168.3	12243.3	-83.6567	09/05/2018 16:17:53.3813	0.0086354	5.33072e-06	1307.19	1291.24	1	14	0.0207305	1.69322e-06	9.02424e-06	8.11776e-05	8.16776e-05	83.6567	1.29124e+06	143543	1.29919e+06	-6.34334	0.0000000E+000	0.0000000E+000	0.0000000E+000	6.34334	0.0000000E+000	0.0000000E+000	0.0000000E+000	-6.34334	0.0000000E+000	0.0000000E+000	0.0000000E+000	-83.6567	0.0000000E+000	0.0000000E+000	0.0000000E+000	83.6567	0.111167	6.34334