File: exp data/EIS mpt files/single type poluted/RM_stacked second run D3_2_C08.mpt
EC-Lab ASCII FILE
Nb header lines : 70

Potentio Electrochemical Impedance Spectroscopy

Run on channel : 8 (SN 13213)
User :
CE vs. WE compliance from -10 V to 10 V
Electrode connection : standard
Potential control : Ewe
Ewe ctrl range : min = -1.00 V, max = 1.00 V
Safety Limits :
	Do not start on E overload
Acquisition started on : 09/05/2018 13:41:35.000
Loaded Setting File : NONE
Saved on :
	File : RM_stacked second run D3_2_C08.mpr
	Directory : D:\Robert\Stacked cells\Second run 3% and 12% PVDF electrodes 12%compressed\
	Host : 10.5.5.6
Device : VMP3 (SN 0628)
Address : 10.5.5.5
EC-Lab for windows v11.17 (software)
Internet server v11.16 (firmware)
Command interpretor v11.16 (firmware)
Electrode material :
Initial state :
Electrolyte :
Comments :
Electrode surface area : 0.001 cm²
Characteristic mass : 0.001 g
Equivalent Weight : 0.000 g/eq.
Density : 0.000 g/cm3
Volume (V) : 0.000 m³
Text export
   Mode : Standard
   Time format : Elapsed
Cycle Definition : Charge/Discharge alternance
Mode                Single sine
E (V)               0.0000
vs.                 Eoc
tE (h:m:s)          0:00:3.0000
record              1
dI                  0.000
unit dI             mA
dt (s)              60.000
fi                  200.000
unit fi             kHz
ff                  10.000
unit ff             mHz
Nd                  8
Points              per decade
spacing             Logarithmic
Va (mV)             20.0
pw                  3.00
Na                  5
corr                0
E range min (V)     -1.000
E range max (V)     1.000
I Range             Auto
Bandwidth           5
nc cycles           0
goto Ns'            0
nr cycles           0
inc. cycle          0

Modify on : 09/05/2018 14:32
No text export
ff                  8.000

freq/Hz	Re(Z)/Ohm	-Im(Z)/Ohm	|Z|/Ohm	Phase(Z)/deg	time/s	<Ewe>/V	<I>/mA	Cs/µF	Cp/µF	cycle number	I Range	|Ewe|/V	|I|/A	Re(Y)/Ohm-1	Im(Y)/Ohm-1	|Y|/Ohm-1	Phase(Y)/deg	Re(C)/nF	Im(C)/nF	|C|/nF	Phase(C)/deg	Re(M)	Im(M)	|M|	Phase(M)/deg	Re(Permittivity)	Im(Permittivity)	|Permittivity|	Phase(Permittivity)/deg	Re(Resistivity)/Ohm.cm	Im(Resistivity)/Ohm.cm	|Resistivity|/Ohm.cm	Phase(Resistivity)/deg	Re(Conductivity)/mS/cm	Im(Conductivity)/mS/cm	|Conductivity|/mS/cm	Phase(Conductivity)/deg	Tan(Delta)	Loss Angle(Delta)/deg
200019	149.19	0.458266	149.191	-0.175995	09/05/2018 13:41:40.3311	-0.00583581	0.00214332	1.73632	1.63826e-05	1	11	0.0181582	0.000121711	0.0067028	2.0589e-05	0.00670284	0.175995	0.0163826	5.3334	5.33343	-89.824	0.0000000E+000	0.0000000E+000	0.0000000E+000	89.824	0.0000000E+000	0.0000000E+000	0.0000000E+000	-89.824	0.0000000E+000	0.0000000E+000	0.0000000E+000	-0.175995	0.0000000E+000	0.0000000E+000	0.0000000E+000	0.175995	325.553	89.824
149678	148.679	0.891069	148.682	-0.343382	09/05/2018 13:41:41.3961	-0.00574095	0.002657	1.19331	4.28604e-05	1	11	0.0204914	0.00013782	0.00672564	4.03082e-05	0.00672576	0.343382	0.0428607	7.15149	7.15162	-89.6566	0.0000000E+000	0.0000000E+000	0.0000000E+000	89.6566	0.0000000E+000	0.0000000E+000	0.0000000E+000	-89.6566	0.0000000E+000	0.0000000E+000	0.0000000E+000	-0.343382	0.0000000E+000	0.0000000E+000	0.0000000E+000	0.343382	166.855	89.6566
112012	148.524	1.2284	148.529	-0.473866	09/05/2018 13:41:42.4601	-0.00572596	0.00272524	1.15669	7.91177e-05	1	11	0.0207983	0.000140029	0.00673247	5.56823e-05	0.0067327	0.473866	0.0791183	9.56602	9.56634	-89.5261	0.0000000E+000	0.0000000E+000	0.0000000E+000	89.5261	0.0000000E+000	0.0000000E+000	0.0000000E+000	-89.5261	0.0000000E+000	0.0000000E+000	0.0000000E+000	-0.473866	0.0000000E+000	0.0000000E+000	0.0000000E+000	0.473866	120.909	89.5261
83828.1	148.571	1.53446	148.579	-0.591738	09/05/2018 13:41:43.5251	-0.0057176	0.00273102	1.2373	0.000131969	1	11	0.0206647	0.000139082	0.00673007	6.95091e-05	0.00673043	0.591738	0.131969	12.7776	12.7783	-89.4083	0.0000000E+000	0.0000000E+000	0.0000000E+000	89.4083	0.0000000E+000	0.0000000E+000	0.0000000E+000	-89.4083	0.0000000E+000	0.0000000E+000	0.0000000E+000	-0.591738	0.0000000E+000	0.0000000E+000	0.0000000E+000	0.591738	96.8228	89.4083
62734.4	148.808	1.84332	148.819	-0.709702	09/05/2018 13:41:44.5901	-0.00571877	0.00275042	1.3763	0.000211154	1	11	0.0205922	0.000138371	0.00671906	8.32308e-05	0.00671958	0.709702	0.211154	17.046	17.0473	-89.2903	0.0000000E+000	0.0000000E+000	0.0000000E+000	89.2903	0.0000000E+000	0.0000000E+000	0.0000000E+000	-89.2903	0.0000000E+000	0.0000000E+000	0.0000000E+000	-0.709702	0.0000000E+000	0.0000000E+000	0.0000000E+000	0.709702	80.7281	89.2903
46953.1	149.06	2.09752	149.075	-0.806194	09/05/2018 13:41:45.6541	-0.00569164	0.00284234	1.61603	0.00031993	1	11	0.0205261	0.00013769	0.00670739	9.43841e-05	0.00670805	0.806194	0.319929	22.7357	22.738	-89.1938	0.0000000E+000	0.0000000E+000	0.0000000E+000	89.1938	0.0000000E+000	0.0000000E+000	0.0000000E+000	-89.1938	0.0000000E+000	0.0000000E+000	0.0000000E+000	-0.806194	0.0000000E+000	0.0000000E+000	0.0000000E+000	0.806194	71.0648	89.1938
35136.7	149.423	2.32787	149.441	-0.892542	09/05/2018 13:41:46.7191	-0.00570285	0.00281568	1.94581	0.000472147	1	11	0.0203984	0.000136498	0.00669078	0.000104236	0.0066916	0.892542	0.472146	30.3065	30.3102	-89.1075	0.0000000E+000	0.0000000E+000	0.0000000E+000	89.1075	0.0000000E+000	0.0000000E+000	0.0000000E+000	-89.1075	0.0000000E+000	0.0000000E+000	0.0000000E+000	-0.892542	0.0000000E+000	0.0000000E+000	0.0000000E+000	0.892542	64.1888	89.1075
26298.8	149.651	2.61726	149.674	-1.00195	09/05/2018 13:41:47.7841	-0.00569164	0.00281903	2.31226	0.000707031	1	11	0.0202886	0.000135552	0.00668017	0.00011683	0.00668119	1.00195	0.707029	40.427	40.4332	-88.9981	0.0000000E+000	0.0000000E+000	0.0000000E+000	88.9981	0.0000000E+000	0.0000000E+000	0.0000000E+000	-88.9981	0.0000000E+000	0.0000000E+000	0.0000000E+000	-1.00195	0.0000000E+000	0.0000000E+000	0.0000000E+000	1.00195	57.1785	88.9981
19677.7	150.055	2.922	150.083	-1.11558	09/05/2018 13:41:48.7231	-0.00569932	0.00286993	2.76799	0.00104921	1	11	0.0219616	0.00014633	0.00666171	0.000129723	0.00666297	1.11558	1.04921	53.8804	53.8906	-88.8844	0.0000000E+000	0.0000000E+000	0.0000000E+000	88.8844	0.0000000E+000	0.0000000E+000	0.0000000E+000	-88.8844	0.0000000E+000	0.0000000E+000	0.0000000E+000	-1.11558	0.0000000E+000	0.0000000E+000	0.0000000E+000	1.11558	51.3534	88.8844
14726.6	150.462	3.31656	150.499	-1.26274	09/05/2018 13:41:49.7881	-0.00570421	0.00283395	3.2586	0.00158249	1	11	0.0202564	0.000134595	0.00664295	0.000146427	0.00664457	1.26274	1.58248	71.7926	71.8101	-88.7373	0.0000000E+000	0.0000000E+000	0.0000000E+000	88.7373	0.0000000E+000	0.0000000E+000	0.0000000E+000	-88.7373	0.0000000E+000	0.0000000E+000	0.0000000E+000	-1.26274	0.0000000E+000	0.0000000E+000	0.0000000E+000	1.26274	45.367	88.7373
11025.4	150.978	3.86227	151.028	-1.4654	09/05/2018 13:41:50.7271	-0.0057037	0.00281586	3.73752	0.0024443	1	11	0.0208823	0.000138268	0.00661913	0.000169328	0.00662129	1.4654	2.44431	95.5492	95.5805	-88.5346	0.0000000E+000	0.0000000E+000	0.0000000E+000	88.5346	0.0000000E+000	0.0000000E+000	0.0000000E+000	-88.5346	0.0000000E+000	0.0000000E+000	0.0000000E+000	-1.4654	0.0000000E+000	0.0000000E+000	0.0000000E+000	1.4654	39.0906	88.5346
8325.19	151.56	4.41258	151.624	-1.66766	09/05/2018 13:41:51.8186	-0.00568649	0.00293221	4.33245	0.00366929	1	11	0.0212484	0.000140139	0.00659246	0.000191936	0.00659526	1.66766	3.66929	126.03	126.083	-88.3323	0.0000000E+000	0.0000000E+000	0.0000000E+000	88.3323	0.0000000E+000	0.0000000E+000	0.0000000E+000	-88.3323	0.0000000E+000	0.0000000E+000	0.0000000E+000	-1.66766	0.0000000E+000	0.0000000E+000	0.0000000E+000	1.66766	34.3472	88.3323
6195.49	152.395	5.13169	152.482	-1.92863	09/05/2018 13:41:53.2339	-0.00569082	0.00278566	5.00592	0.00566983	1	11	0.0214738	0.000140829	0.00655445	0.000220712	0.00655817	1.92863	5.66984	168.376	168.472	-88.0714	0.0000000E+000	0.0000000E+000	0.0000000E+000	88.0714	0.0000000E+000	0.0000000E+000	0.0000000E+000	-88.0714	0.0000000E+000	0.0000000E+000	0.0000000E+000	-1.92863	0.0000000E+000	0.0000000E+000	0.0000000E+000	1.92863	29.6969	88.0714
4621.48	153.401	5.93235	153.515	-2.21465	09/05/2018 13:41:54.9207	-0.00569654	0.00279517	5.80513	0.00866888	1	11	0.0215963	0.000140679	0.00650914	0.000251723	0.00651401	2.21465	8.66887	224.163	224.33	-87.7853	0.0000000E+000	0.0000000E+000	0.0000000E+000	87.7853	0.0000000E+000	0.0000000E+000	0.0000000E+000	-87.7853	0.0000000E+000	0.0000000E+000	0.0000000E+000	-2.21465	0.0000000E+000	0.0000000E+000	0.0000000E+000	2.21465	25.8583	87.7853
3456.11	154.544	6.60587	154.685	-2.44758	09/05/2018 13:41:56.6077	-0.00568796	0.00275955	6.97113	0.0127136	1	11	0.0216638	0.000140051	0.00645886	0.00027608	0.00646476	2.44758	12.7136	297.433	297.705	-87.5524	0.0000000E+000	0.0000000E+000	0.0000000E+000	87.5524	0.0000000E+000	0.0000000E+000	0.0000000E+000	-87.5524	0.0000000E+000	0.0000000E+000	0.0000000E+000	-2.44758	0.0000000E+000	0.0000000E+000	0.0000000E+000	2.44758	23.3949	87.5524
2585.83	155.881	7.33174	156.053	-2.69288	09/05/2018 13:41:58.2947	-0.00569044	0.00279461	8.39486	0.0185303	1	11	0.0216922	0.000139005	0.00640099	0.000301065	0.00640806	2.69288	18.5303	393.974	394.41	-87.3071	0.0000000E+000	0.0000000E+000	0.0000000E+000	87.3071	0.0000000E+000	0.0000000E+000	0.0000000E+000	-87.3071	0.0000000E+000	0.0000000E+000	0.0000000E+000	-2.69288	0.0000000E+000	0.0000000E+000	0.0000000E+000	2.69288	21.2611	87.3071
1935.62	157.376	7.90392	157.574	-2.87516	09/05/2018 13:41:59.9817	-0.0056927	0.00279964	10.403	0.0261741	1	11	0.021711	0.000137783	0.00633822	0.000318325	0.00634621	2.87516	26.1741	521.156	521.813	-87.1248	0.0000000E+000	0.0000000E+000	0.0000000E+000	87.1248	0.0000000E+000	0.0000000E+000	0.0000000E+000	-87.1248	0.0000000E+000	0.0000000E+000	0.0000000E+000	-2.87516	0.0000000E+000	0.0000000E+000	0.0000000E+000	2.87516	19.9111	87.1248
1448.61	158.902	8.45259	159.126	-3.04491	09/05/2018 13:42:01.6699	-0.00569067	0.00275881	12.9981	0.0366754	1	11	0.02172	0.000136496	0.00627545	0.000333815	0.00628432	3.04491	36.6754	689.467	690.442	-86.9551	0.0000000E+000	0.0000000E+000	0.0000000E+000	86.9551	0.0000000E+000	0.0000000E+000	0.0000000E+000	-86.9551	0.0000000E+000	0.0000000E+000	0.0000000E+000	-3.04491	0.0000000E+000	0.0000000E+000	0.0000000E+000	3.04491	18.7992	86.9551
1083.96	160.437	8.98701	160.688	-3.20612	09/05/2018 13:42:03.3579	-0.00568817	0.00277559	16.3377	0.0511039	1	11	0.0217231	0.000135188	0.00621349	0.000348054	0.00622323	3.20612	51.1039	912.31	913.74	-86.7939	0.0000000E+000	0.0000000E+000	0.0000000E+000	86.7939	0.0000000E+000	0.0000000E+000	0.0000000E+000	-86.7939	0.0000000E+000	0.0000000E+000	0.0000000E+000	-3.20612	0.0000000E+000	0.0000000E+000	0.0000000E+000	3.20612	17.8521	86.7939
811.298	161.991	9.581	162.274	-3.38484	09/05/2018 13:42:05.0434	-0.00568576	0.00282742	20.4752	0.0713763	1	11	0.0217226	0.000133864	0.00615168	0.000363843	0.00616243	3.38484	71.3764	1206.79	1208.9	-86.6152	0.0000000E+000	0.0000000E+000	0.0000000E+000	86.6152	0.0000000E+000	0.0000000E+000	0.0000000E+000	-86.6152	0.0000000E+000	0.0000000E+000	0.0000000E+000	-3.38484	0.0000000E+000	0.0000000E+000	0.0000000E+000	3.38484	16.9075	86.6152
607.527	163.538	10.2818	163.861	-3.59751	09/05/2018 13:42:06.7239	-0.00569693	0.00277988	25.4791	0.100317	1	11	0.0217234	0.000132572	0.0060907	0.000382929	0.00610273	3.59751	100.317	1595.59	1598.74	-86.4025	0.0000000E+000	0.0000000E+000	0.0000000E+000	86.4025	0.0000000E+000	0.0000000E+000	0.0000000E+000	-86.4025	0.0000000E+000	0.0000000E+000	0.0000000E+000	-3.59751	0.0000000E+000	0.0000000E+000	0.0000000E+000	3.59751	15.9056	86.4025
454.564	165.172	11.1374	165.547	-3.85758	09/05/2018 13:42:08.4129	-0.00569194	0.00275694	31.4369	0.142288	1	11	0.0217217	0.000131212	0.00602689	0.00040639	0.00604058	3.85758	142.288	2110.18	2114.97	-86.1424	0.0000000E+000	0.0000000E+000	0.0000000E+000	86.1424	0.0000000E+000	0.0000000E+000	0.0000000E+000	-86.1424	0.0000000E+000	0.0000000E+000	0.0000000E+000	-3.85758	0.0000000E+000	0.0000000E+000	0.0000000E+000	3.85758	14.8303	86.1424
340.109	166.952	12.3267	167.407	-4.22268	09/05/2018 13:42:10.0997	-0.00568793	0.00277503	37.9627	0.205826	1	11	0.0217219	0.000129755	0.00595725	0.000439844	0.00597347	4.22268	205.826	2787.72	2795.3	-85.7773	0.0000000E+000	0.0000000E+000	0.0000000E+000	85.7773	0.0000000E+000	0.0000000E+000	0.0000000E+000	-85.7773	0.0000000E+000	0.0000000E+000	0.0000000E+000	-4.22268	0.0000000E+000	0.0000000E+000	0.0000000E+000	4.22268	13.544	85.7773
254.43	168.829	13.677	169.382	-4.63148	09/05/2018 13:42:11.7902	-0.0056927	0.00273177	45.7363	0.298202	1	11	0.0217233	0.00012825	0.00588455	0.000476714	0.00590383	4.63148	298.202	3680.99	3693.05	-85.3685	0.0000000E+000	0.0000000E+000	0.0000000E+000	85.3685	0.0000000E+000	0.0000000E+000	0.0000000E+000	-85.3685	0.0000000E+000	0.0000000E+000	0.0000000E+000	-4.63148	0.0000000E+000	0.0000000E+000	0.0000000E+000	4.63148	12.344	85.3685
190.549	170.856	15.3559	171.544	-5.13573	09/05/2018 13:42:13.4712	-0.00569264	0.00275843	54.3926	0.435848	1	11	0.0217212	0.000126621	0.00580599	0.00052182	0.00582939	5.13573	435.848	4849.43	4868.97	-84.8643	0.0000000E+000	0.0000000E+000	0.0000000E+000	84.8643	0.0000000E+000	0.0000000E+000	0.0000000E+000	-84.8643	0.0000000E+000	0.0000000E+000	0.0000000E+000	-5.13573	0.0000000E+000	0.0000000E+000	0.0000000E+000	5.13573	11.1264	84.8643
142.492	173.268	17.355	174.135	-5.71982	09/05/2018 13:42:15.1853	-0.0056891	0.00280169	64.3584	0.639265	1	11	0.0217226	0.000124746	0.00571408	0.000572337	0.00574267	5.71982	639.266	6382.28	6414.21	-84.2802	0.0000000E+000	0.0000000E+000	0.0000000E+000	84.2802	0.0000000E+000	0.0000000E+000	0.0000000E+000	-84.2802	0.0000000E+000	0.0000000E+000	0.0000000E+000	-5.71982	0.0000000E+000	0.0000000E+000	0.0000000E+000	5.71982	9.98377	84.2802
106.673	175.971	19.7489	177.075	-6.40343	09/05/2018 13:42:16.8466	-0.00569442	0.00273587	75.5481	0.939711	1	11	0.0217203	0.000122661	0.00561208	0.000629836	0.00564731	6.40343	939.711	8373.19	8425.76	-83.5966	0.0000000E+000	0.0000000E+000	0.0000000E+000	83.5966	0.0000000E+000	0.0000000E+000	0.0000000E+000	-83.5966	0.0000000E+000	0.0000000E+000	0.0000000E+000	-6.40343	0.0000000E+000	0.0000000E+000	0.0000000E+000	6.40343	8.91039	83.5966
79.8212	179.038	22.5534	180.453	-7.17972	09/05/2018 13:42:18.5382	-0.0056971	0.0027506	88.4076	1.38097	1	11	0.0217227	0.000120379	0.00549815	0.000692601	0.0055416	7.17972	1380.97	10962.7	11049.4	-82.8203	0.0000000E+000	0.0000000E+000	0.0000000E+000	82.8203	0.0000000E+000	0.0000000E+000	0.0000000E+000	-82.8203	0.0000000E+000	0.0000000E+000	0.0000000E+000	-7.17972	0.0000000E+000	0.0000000E+000	0.0000000E+000	7.17972	7.93841	82.8203
59.7895	182.601	25.8476	184.421	-8.05684	09/05/2018 13:42:20.2325	-0.00569423	0.00275676	102.985	2.02299	1	11	0.0217231	0.000117791	0.00536885	0.000759976	0.00542238	8.05684	2022.99	14291.5	14433.9	-81.9432	0.0000000E+000	0.0000000E+000	0.0000000E+000	81.9432	0.0000000E+000	0.0000000E+000	0.0000000E+000	-81.9432	0.0000000E+000	0.0000000E+000	0.0000000E+000	-8.05684	0.0000000E+000	0.0000000E+000	0.0000000E+000	8.05684	7.06451	81.9432
44.728	186.622	29.6282	188.959	-9.02104	09/05/2018 13:42:22.1770	-0.00569539	0.000249568	120.098	2.95264	1	12	0.0217302	0.000115	0.00522669	0.000829795	0.00529215	9.02104	2952.64	18598	18831	-80.979	0.0000000E+000	0.0000000E+000	0.0000000E+000	80.979	0.0000000E+000	0.0000000E+000	0.0000000E+000	-80.979	0.0000000E+000	0.0000000E+000	0.0000000E+000	-9.02104	0.0000000E+000	0.0000000E+000	0.0000000E+000	9.02104	6.29878	80.979
33.4276	191.37	34.0407	194.374	-10.0862	09/05/2018 13:42:23.9382	-0.00568752	0.000239337	139.868	4.28978	1	12	0.0217281	0.000111785	0.0050652	0.00090099	0.00514471	10.0862	4289.78	24116.4	24494.9	-79.9138	0.0000000E+000	0.0000000E+000	0.0000000E+000	79.9138	0.0000000E+000	0.0000000E+000	0.0000000E+000	-79.9138	0.0000000E+000	0.0000000E+000	0.0000000E+000	-10.0862	0.0000000E+000	0.0000000E+000	0.0000000E+000	10.0862	5.62182	79.9138
25.0401	196.81	39.0629	200.649	-11.2262	09/05/2018 13:42:25.6244	-0.00568949	0.000277995	162.712	6.167	1	12	0.0217306	0.000108302	0.00488846	0.000970263	0.00498382	11.2262	6167	31071.1	31677.2	-78.7738	0.0000000E+000	0.0000000E+000	0.0000000E+000	78.7738	0.0000000E+000	0.0000000E+000	0.0000000E+000	-78.7738	0.0000000E+000	0.0000000E+000	0.0000000E+000	-11.2262	0.0000000E+000	0.0000000E+000	0.0000000E+000	11.2262	5.03829	78.7738
18.735	203.027	44.8447	207.921	-12.4555	09/05/2018 13:42:27.4173	-0.0056884	0.000246276	189.433	8.81213	1	12	0.0217246	0.000104485	0.00469632	0.00103732	0.00480952	12.4555	8812.13	39895.5	40857.2	-77.5445	0.0000000E+000	0.0000000E+000	0.0000000E+000	77.5445	0.0000000E+000	0.0000000E+000	0.0000000E+000	-77.5445	0.0000000E+000	0.0000000E+000	0.0000000E+000	-12.4555	0.0000000E+000	0.0000000E+000	0.0000000E+000	12.4555	4.52734	77.5445
14.0176	210.217	51.4672	216.426	-13.7571	09/05/2018 13:42:29.2168	-0.0056907	0.00026796	220.604	12.4755	1	12	0.0217223	0.000100368	0.00448797	0.00109879	0.00462052	13.7571	12475.5	50956	52461	-76.2429	0.0000000E+000	0.0000000E+000	0.0000000E+000	76.2429	0.0000000E+000	0.0000000E+000	0.0000000E+000	-76.2429	0.0000000E+000	0.0000000E+000	0.0000000E+000	-13.7571	0.0000000E+000	0.0000000E+000	0.0000000E+000	13.7571	4.08448	76.2429
10.5007	218.43	59.0504	226.271	-15.1277	09/05/2018 13:42:30.8282	-0.0056894	0.000241379	256.673	17.4811	1	12	0.0217214	9.59974e-05	0.00426633	0.00115336	0.00441948	15.1277	17481.1	64663.3	66984.5	-74.8723	0.0000000E+000	0.0000000E+000	0.0000000E+000	74.8723	0.0000000E+000	0.0000000E+000	0.0000000E+000	-74.8723	0.0000000E+000	0.0000000E+000	0.0000000E+000	-15.1277	0.0000000E+000	0.0000000E+000	0.0000000E+000	15.1277	3.69904	74.8723
7.85965	227.915	67.6722	237.749	-16.5371	09/05/2018 13:42:32.9482	-0.00568713	0.000266803	299.231	24.2431	1	12	0.0217212	9.1362e-05	0.00403213	0.00119721	0.00420611	16.5371	24243.1	81649	85172.1	-73.4629	0.0000000E+000	0.0000000E+000	0.0000000E+000	73.4629	0.0000000E+000	0.0000000E+000	0.0000000E+000	-73.4629	0.0000000E+000	0.0000000E+000	0.0000000E+000	-16.5371	0.0000000E+000	0.0000000E+000	0.0000000E+000	16.5371	3.36793	73.4629
5.88291	238.823	77.5075	251.085	-17.9803	09/05/2018 13:42:34.3987	-0.00568737	0.000117186	349.048	33.2606	1	12	0.021719	8.65006e-05	0.00378821	0.00122942	0.00398272	17.9803	33260.6	102485	107748	-72.0197	0.0000000E+000	0.0000000E+000	0.0000000E+000	72.0197	0.0000000E+000	0.0000000E+000	0.0000000E+000	-72.0197	0.0000000E+000	0.0000000E+000	0.0000000E+000	-17.9803	0.0000000E+000	0.0000000E+000	0.0000000E+000	17.9803	3.08129	72.0197
4.39893	251.193	88.968	266.483	-19.5032	09/05/2018 13:42:36.3051	-0.00568789	0.000242396	406.667	45.3281	1	12	0.0217182	8.14993e-05	0.00353727	0.00125284	0.00375258	19.5032	45328.1	127980	135770	-70.4968	0.0000000E+000	0.0000000E+000	0.0000000E+000	70.4968	0.0000000E+000	0.0000000E+000	0.0000000E+000	-70.4968	0.0000000E+000	0.0000000E+000	0.0000000E+000	-19.5032	0.0000000E+000	0.0000000E+000	0.0000000E+000	19.5032	2.82341	70.4968
3.29363	265.432	101.962	284.342	-21.0136	09/05/2018 13:42:38.8154	-0.00568827	0.000228247	473.921	60.9399	1	12	0.0217161	7.63732e-05	0.003283	0.00126112	0.00351689	21.0136	60939.9	158641	169943	-68.9864	0.0000000E+000	0.0000000E+000	0.0000000E+000	68.9864	0.0000000E+000	0.0000000E+000	0.0000000E+000	-68.9864	0.0000000E+000	0.0000000E+000	0.0000000E+000	-21.0136	0.0000000E+000	0.0000000E+000	0.0000000E+000	21.0136	2.60324	68.9864
2.46607	281.661	116.908	304.959	-22.5416	09/05/2018 13:42:42.1383	-0.00568443	0.000251236	552.043	81.1286	1	12	0.0217201	7.12229e-05	0.00302861	0.00125707	0.00327913	22.5416	81128.6	195460	211628	-67.4584	0.0000000E+000	0.0000000E+000	0.0000000E+000	67.4584	0.0000000E+000	0.0000000E+000	0.0000000E+000	-67.4584	0.0000000E+000	0.0000000E+000	0.0000000E+000	-22.5416	0.0000000E+000	0.0000000E+000	0.0000000E+000	22.5416	2.40926	67.4584
1.84257	300.419	134.081	328.982	-24.0519	09/05/2018 13:42:46.5546	-0.00568465	0.00026532	644.211	107.009	1	12	0.0217189	6.60184e-05	0.00277576	0.00123886	0.00303968	24.0519	107009	239761	262557	-65.9481	0.0000000E+000	0.0000000E+000	0.0000000E+000	65.9481	0.0000000E+000	0.0000000E+000	0.0000000E+000	-65.9481	0.0000000E+000	0.0000000E+000	0.0000000E+000	-24.0519	0.0000000E+000	0.0000000E+000	0.0000000E+000	24.0519	2.24057	65.9481
1.38128	321.552	153.751	356.42	-25.5549	09/05/2018 13:42:52.4210	-0.00568472	0.000251396	749.415	139.455	1	12	0.0217193	6.09374e-05	0.00253121	0.0012103	0.00280568	25.5549	139455	291653	323279	-64.4451	0.0000000E+000	0.0000000E+000	0.0000000E+000	64.4451	0.0000000E+000	0.0000000E+000	0.0000000E+000	-64.4451	0.0000000E+000	0.0000000E+000	0.0000000E+000	-25.5549	0.0000000E+000	0.0000000E+000	0.0000000E+000	25.5549	2.09139	64.4451
1.0334	345.867	176.444	388.274	-27.0285	09/05/2018 13:43:00.2359	-0.00568187	0.000255653	872.859	180.254	1	12	0.0217194	5.59384e-05	0.00229421	0.00117039	0.0025755	27.0285	180254	353334	396656	-62.9715	0.0000000E+000	0.0000000E+000	0.0000000E+000	62.9715	0.0000000E+000	0.0000000E+000	0.0000000E+000	-62.9715	0.0000000E+000	0.0000000E+000	0.0000000E+000	-27.0285	0.0000000E+000	0.0000000E+000	0.0000000E+000	27.0285	1.9602	62.9715
0.773208	373.678	202.636	425.084	-28.4699	09/05/2018 13:43:10.6577	-0.00567659	0.000254294	1015.8	230.83	1	12	0.0217177	5.10904e-05	0.00206799	0.00112142	0.00235248	28.4699	230830	425668	484227	-61.5301	0.0000000E+000	0.0000000E+000	0.0000000E+000	61.5301	0.0000000E+000	0.0000000E+000	0.0000000E+000	-61.5301	0.0000000E+000	0.0000000E+000	0.0000000E+000	-28.4699	0.0000000E+000	0.0000000E+000	0.0000000E+000	28.4699	1.84408	61.5301
0.578532	405.455	232.364	467.318	-29.8168	09/05/2018 13:43:26.3321	-0.00567057	3.92888e-05	1183.92	292.709	1	13	0.0217276	4.64942e-05	0.00185659	0.001064	0.00213987	29.8168	292709	510751	588681	-60.1832	0.0000000E+000	0.0000000E+000	0.0000000E+000	60.1832	0.0000000E+000	0.0000000E+000	0.0000000E+000	-60.1832	0.0000000E+000	0.0000000E+000	0.0000000E+000	-29.8168	0.0000000E+000	0.0000000E+000	0.0000000E+000	29.8168	1.74491	60.1832
0.433065	442.214	267.493	516.822	-31.1696	09/05/2018 13:43:44.8809	-0.0056732	7.62262e-05	1373.9	368.041	1	13	0.0217215	4.2029e-05	0.00165558	0.00100145	0.0019349	31.1696	368041	608438	711091	-58.8304	0.0000000E+000	0.0000000E+000	0.0000000E+000	58.8304	0.0000000E+000	0.0000000E+000	0.0000000E+000	-58.8304	0.0000000E+000	0.0000000E+000	0.0000000E+000	-31.1696	0.0000000E+000	0.0000000E+000	0.0000000E+000	31.1696	1.65318	58.8304
0.323901	484.376	308.24	574.136	-32.4713	09/05/2018 13:44:09.6589	-0.00567828	6.82485e-05	1594.11	459.481	1	13	0.0217196	3.78301e-05	0.00146944	0.000935105	0.00174175	32.4713	459481	722039	855840	-57.5287	0.0000000E+000	0.0000000E+000	0.0000000E+000	57.5287	0.0000000E+000	0.0000000E+000	0.0000000E+000	-57.5287	0.0000000E+000	0.0000000E+000	0.0000000E+000	-32.4713	0.0000000E+000	0.0000000E+000	0.0000000E+000	32.4713	1.57142	57.5287
0.242323	533.158	355.198	640.643	-33.6722	09/05/2018 13:44:42.7574	-0.0056758	6.57135e-05	1849.07	568.412	1	13	0.0217189	3.39017e-05	0.00129904	0.000865443	0.00156093	33.6722	568413	853197	1.0252e+06	-56.3278	0.0000000E+000	0.0000000E+000	0.0000000E+000	56.3278	0.0000000E+000	0.0000000E+000	0.0000000E+000	-56.3278	0.0000000E+000	0.0000000E+000	0.0000000E+000	-33.6722	0.0000000E+000	0.0000000E+000	0.0000000E+000	33.6722	1.50102	56.3278
0.181534	589.45	407.633	716.67	-34.6657	09/05/2018 13:45:26.9185	-0.00568032	4.72982e-05	2150.76	695.814	1	13	0.0217178	3.03037e-05	0.00114765	0.000793653	0.00139534	34.6657	695813	1.00617e+06	1.22333e+06	-55.3343	0.0000000E+000	0.0000000E+000	0.0000000E+000	55.3343	0.0000000E+000	0.0000000E+000	0.0000000E+000	-55.3343	0.0000000E+000	0.0000000E+000	0.0000000E+000	-34.6657	0.0000000E+000	0.0000000E+000	0.0000000E+000	34.6657	1.44603	55.3343
0.135846	652.846	464.9	801.46	-35.4551	09/05/2018 13:46:25.9114	-0.00567623	4.03408e-05	2520.08	847.946	1	13	0.0217183	2.70984e-05	0.00101636	0.000723761	0.00124772	35.4551	847947	1.19075e+06	1.46181e+06	-54.5449	0.0000000E+000	0.0000000E+000	0.0000000E+000	54.5449	0.0000000E+000	0.0000000E+000	0.0000000E+000	-54.5449	0.0000000E+000	0.0000000E+000	0.0000000E+000	-35.4551	0.0000000E+000	0.0000000E+000	0.0000000E+000	35.4551	1.40427	54.5449
0.101725	718.986	527.161	891.538	-36.2489	09/05/2018 13:47:44.6701	-0.00567504	3.99232e-05	2967.89	1037.66	1	13	0.0217187	2.43609e-05	0.000904567	0.000663229	0.00112166	36.2489	1.03766e+06	1.41525e+06	1.7549e+06	-53.7511	0.0000000E+000	0.0000000E+000	0.0000000E+000	53.7511	0.0000000E+000	0.0000000E+000	0.0000000E+000	-53.7511	0.0000000E+000	0.0000000E+000	0.0000000E+000	-36.2489	0.0000000E+000	0.0000000E+000	0.0000000E+000	36.2489	1.36388	53.7511
0.0761037	782.163	599.8	985.667	-37.4827	09/05/2018 13:49:29.9248	-0.005675	3.93426e-05	3486.65	1291.1	1	13	0.0217181	2.20339e-05	0.000805076	0.000617371	0.00101454	37.4827	1.2911e+06	1.68365e+06	2.1217e+06	-52.5173	0.0000000E+000	0.0000000E+000	0.0000000E+000	52.5173	0.0000000E+000	0.0000000E+000	0.0000000E+000	-52.5173	0.0000000E+000	0.0000000E+000	0.0000000E+000	-37.4827	0.0000000E+000	0.0000000E+000	0.0000000E+000	37.4827	1.30404	52.5173
0.0569665	837.384	693.168	1087.06	-39.6172	09/05/2018 13:51:50.5179	-0.00568439	4.5756e-05	4030.53	1638.83	1	13	0.0217094	1.99708e-05	0.00070863	0.000586588	0.000919915	39.6172	1.63883e+06	1.9798e+06	2.57009e+06	-50.3828	0.0000000E+000	0.0000000E+000	0.0000000E+000	50.3828	0.0000000E+000	0.0000000E+000	0.0000000E+000	-50.3828	0.0000000E+000	0.0000000E+000	0.0000000E+000	-39.6172	0.0000000E+000	0.0000000E+000	0.0000000E+000	39.6172	1.20805	50.3828
0.0426446	882.252	821.836	1205.73	-42.9695	09/05/2018 13:54:58.3071	-0.00568194	3.85011e-05	4541.2	2109.8	1	13	0.0217133	1.80085e-05	0.000606867	0.000565309	0.000829374	42.9695	2.1098e+06	2.2649e+06	3.09532e+06	-47.0305	0.0000000E+000	0.0000000E+000	0.0000000E+000	47.0305	0.0000000E+000	0.0000000E+000	0.0000000E+000	-47.0305	0.0000000E+000	0.0000000E+000	0.0000000E+000	-42.9695	0.0000000E+000	0.0000000E+000	0.0000000E+000	42.9695	1.07351	47.0305
0.0319138	918.431	1003.25	1360.15	-47.5272	09/05/2018 13:59:09.2193	-0.00568421	3.40196e-05	4970.89	2704.41	1	13	0.0217163	1.59661e-05	0.000496444	0.00054229	0.000735211	47.5272	2.70441e+06	2.47578e+06	3.66652e+06	-42.4728	0.0000000E+000	0.0000000E+000	0.0000000E+000	42.4728	0.0000000E+000	0.0000000E+000	0.0000000E+000	-42.4728	0.0000000E+000	0.0000000E+000	0.0000000E+000	-47.5272	0.0000000E+000	0.0000000E+000	0.0000000E+000	47.5272	0.915459	42.4728
0.0238768	948.919	1257.16	1575.09	-52.9541	09/05/2018 14:04:44.5681	-0.00567714	3.58175e-05	5302.16	3377.73	1	13	0.0217158	1.37871e-05	0.00038249	0.000506736	0.000634886	52.9541	3.37773e+06	2.54955e+06	4.23194e+06	-37.0459	0.0000000E+000	0.0000000E+000	0.0000000E+000	37.0459	0.0000000E+000	0.0000000E+000	0.0000000E+000	-37.0459	0.0000000E+000	0.0000000E+000	0.0000000E+000	-52.9541	0.0000000E+000	0.0000000E+000	0.0000000E+000	52.9541	0.754811	37.0459
0.0178412	976.536	1609.76	1882.81	-58.7576	09/05/2018 14:12:13.3448	-0.00567634	3.78617e-05	5541.6	4050.87	1	13	0.0217177	1.15347e-05	0.000275472	0.000454099	0.000531122	58.7576	4.05087e+06	2.45739e+06	4.73796e+06	-31.2424	0.0000000E+000	0.0000000E+000	0.0000000E+000	31.2424	0.0000000E+000	0.0000000E+000	0.0000000E+000	-31.2424	0.0000000E+000	0.0000000E+000	0.0000000E+000	-58.7576	0.0000000E+000	0.0000000E+000	0.0000000E+000	58.7576	0.606633	31.2424
0.0133776	1003.63	2083.84	2312.93	-64.2833	09/05/2018 14:22:11.8411	-0.0056795	3.67035e-05	5709.25	4634.27	1	13	0.0217173	9.3895e-06	0.000187607	0.000389528	0.000432352	64.2833	4.63427e+06	2.23198e+06	5.14376e+06	-25.7167	0.0000000E+000	0.0000000E+000	0.0000000E+000	25.7167	0.0000000E+000	0.0000000E+000	0.0000000E+000	-25.7167	0.0000000E+000	0.0000000E+000	0.0000000E+000	-64.2833	0.0000000E+000	0.0000000E+000	0.0000000E+000	64.2833	0.481626	25.7167
0.0106845	1033.76	2695.71	2887.13	-69.0189	09/05/2018 14:35:25.6453	-0.00567362	4.42939e-05	5525.78	4817.34	1	13	0.0217172	7.52206e-06	0.000124019	0.000323401	0.000346365	69.0189	4.81734e+06	1.84738e+06	5.15941e+06	-20.9811	0.0000000E+000	0.0000000E+000	0.0000000E+000	20.9811	0.0000000E+000	0.0000000E+000	0.0000000E+000	-20.9811	0.0000000E+000	0.0000000E+000	0.0000000E+000	-69.0189	0.0000000E+000	0.0000000E+000	0.0000000E+000	69.0189	0.383485	20.9811
0.0080046	1062.37	3370.71	3534.17	-72.5063	09/05/2018 14:52:05.8298	-0.00566601	3.65311e-05	5898.73	5365.71	1	13	0.0217167	6.14477e-06	8.50557e-05	0.000269865	0.000282952	72.5063	5.36571e+06	1.69116e+06	5.62591e+06	-17.4937	0.0000000E+000	0.0000000E+000	0.0000000E+000	17.4937	0.0000000E+000	0.0000000E+000	0.0000000E+000	-17.4937	0.0000000E+000	0.0000000E+000	0.0000000E+000	-72.5063	0.0000000E+000	0.0000000E+000	0.0000000E+000	72.5063	0.315178	17.4937