File: exp data/EIS mpt files/single type poluted/RM_stacked second run D12_2_C04.mpt
EC-Lab ASCII FILE
Nb header lines : 66

Potentio Electrochemical Impedance Spectroscopy

Run on channel : 4 (SN 13229)
User :
CE vs. WE compliance from -10 V to 10 V
Electrode connection : standard
Potential control : Ewe
Ewe ctrl range : min = -1.00 V, max = 1.00 V
Safety Limits :
	Do not start on E overload
Acquisition started on : 09/05/2018 15:23:22.000
Loaded Setting File : NONE
Saved on :
	File : RM_stacked second run D12_2_C04.mpr
	Directory : D:\Robert\Stacked cells\Second run 3% and 12% PVDF electrodes 12%compressed\
	Host : 10.5.5.6
Device : VMP3 (SN 0628)
Address : 10.5.5.5
EC-Lab for windows v11.17 (software)
Internet server v11.16 (firmware)
Command interpretor v11.16 (firmware)
Electrode material :
Initial state :
Electrolyte :
Comments :
Electrode surface area : 0.001 cm²
Characteristic mass : 0.001 g
Equivalent Weight : 0.000 g/eq.
Density : 0.000 g/cm3
Volume (V) : 0.000 m³
Text export
   Mode : Standard
   Time format : Elapsed
Cycle Definition : Charge/Discharge alternance
Mode                Single sine
E (V)               0.0000
vs.                 Eoc
tE (h:m:s)          0:00:3.0000
record              1
dI                  0.000
unit dI             mA
dt (s)              60.000
fi                  200.000
unit fi             kHz
ff                  10.000
unit ff             mHz
Nd                  8
Points              per decade
spacing             Logarithmic
Va (mV)             20.0
pw                  3.00
Na                  5
corr                0
E range min (V)     -1.000
E range max (V)     1.000
I Range             Auto
Bandwidth           5
nc cycles           0
goto Ns'            0
nr cycles           0
inc. cycle          0

freq/Hz	Re(Z)/Ohm	-Im(Z)/Ohm	|Z|/Ohm	Phase(Z)/deg	time/s	<Ewe>/V	<I>/mA	Cs/µF	Cp/µF	cycle number	I Range	|Ewe|/V	|I|/A	Re(Y)/Ohm-1	Im(Y)/Ohm-1	|Y|/Ohm-1	Phase(Y)/deg	Re(C)/nF	Im(C)/nF	|C|/nF	Phase(C)/deg	Re(M)	Im(M)	|M|	Phase(M)/deg	Re(Permittivity)	Im(Permittivity)	|Permittivity|	Phase(Permittivity)/deg	Re(Resistivity)/Ohm.cm	Im(Resistivity)/Ohm.cm	|Resistivity|/Ohm.cm	Phase(Resistivity)/deg	Re(Conductivity)/mS/cm	Im(Conductivity)/mS/cm	|Conductivity|/mS/cm	Phase(Conductivity)/deg	Tan(Delta)	Loss Angle(Delta)/deg
200019	138.441	0.931801	138.445	-0.385632	09/05/2018 15:23:27.3311	0.00246872	-0.002887	0.853934	3.86829e-05	1	11	0.0185558	0.00013403	0.00722295	4.86152e-05	0.00722311	0.385632	0.0386833	5.74728	5.74741	-89.6144	0.0000000E+000	0.0000000E+000	0.0000000E+000	89.6144	0.0000000E+000	0.0000000E+000	0.0000000E+000	-89.6144	0.0000000E+000	0.0000000E+000	0.0000000E+000	-0.385632	0.0000000E+000	0.0000000E+000	0.0000000E+000	0.385632	148.574	89.6144
149678	138.146	1.26697	138.152	-0.525457	09/05/2018 15:23:28.3961	0.00311357	0.00176367	0.839263	7.05854e-05	1	11	0.0205652	0.000148859	0.00723811	6.63822e-05	0.00723841	0.525457	0.0705857	7.69641	7.69673	-89.4745	0.0000000E+000	0.0000000E+000	0.0000000E+000	89.4745	0.0000000E+000	0.0000000E+000	0.0000000E+000	-89.4745	0.0000000E+000	0.0000000E+000	0.0000000E+000	-0.525457	0.0000000E+000	0.0000000E+000	0.0000000E+000	0.525457	109.037	89.4745
112012	138.075	1.55352	138.084	-0.644625	09/05/2018 15:23:29.4611	0.00312397	0.00180171	0.914615	0.000115768	1	11	0.0207816	0.0001505	0.00724152	8.14766e-05	0.00724198	0.644625	0.115768	10.2893	10.29	-89.3554	0.0000000E+000	0.0000000E+000	0.0000000E+000	89.3554	0.0000000E+000	0.0000000E+000	0.0000000E+000	-89.3554	0.0000000E+000	0.0000000E+000	0.0000000E+000	-0.644625	0.0000000E+000	0.0000000E+000	0.0000000E+000	0.644625	88.8786	89.3554
83828.1	138.275	1.84858	138.287	-0.765936	09/05/2018 15:23:30.5251	0.00314317	0.00177691	1.02705	0.00018353	1	11	0.0207031	0.000149711	0.00723069	9.66665e-05	0.00723134	0.765936	0.18353	13.7281	13.7293	-89.2341	0.0000000E+000	0.0000000E+000	0.0000000E+000	89.2341	0.0000000E+000	0.0000000E+000	0.0000000E+000	-89.2341	0.0000000E+000	0.0000000E+000	0.0000000E+000	-0.765936	0.0000000E+000	0.0000000E+000	0.0000000E+000	0.765936	74.8004	89.2341
62734.4	138.537	2.0372	138.552	-0.842483	09/05/2018 15:23:31.5901	0.00314909	0.00168795	1.24532	0.000269231	1	11	0.0205929	0.00014863	0.00721674	0.000106123	0.00721752	0.842483	0.269232	18.3086	18.3106	-89.1575	0.0000000E+000	0.0000000E+000	0.0000000E+000	89.1575	0.0000000E+000	0.0000000E+000	0.0000000E+000	-89.1575	0.0000000E+000	0.0000000E+000	0.0000000E+000	-0.842483	0.0000000E+000	0.0000000E+000	0.0000000E+000	0.842483	68.0034	89.1575
46953.1	138.901	2.17485	138.919	-0.897035	09/05/2018 15:23:32.6541	0.00314965	0.00174203	1.55857	0.000382001	1	11	0.0205441	0.000147886	0.00719758	0.000112696	0.00719846	0.897035	0.382001	24.3973	24.4003	-89.103	0.0000000E+000	0.0000000E+000	0.0000000E+000	89.103	0.0000000E+000	0.0000000E+000	0.0000000E+000	-89.103	0.0000000E+000	0.0000000E+000	0.0000000E+000	-0.897035	0.0000000E+000	0.0000000E+000	0.0000000E+000	0.897035	63.8672	89.103
35136.7	139.305	2.25012	139.323	-0.925389	09/05/2018 15:23:33.7191	0.00315172	0.00170697	2.01305	0.000525073	1	11	0.0203733	0.000146231	0.00717664	0.000115921	0.00717758	0.925389	0.525075	32.5072	32.5115	-89.0746	0.0000000E+000	0.0000000E+000	0.0000000E+000	89.0746	0.0000000E+000	0.0000000E+000	0.0000000E+000	-89.0746	0.0000000E+000	0.0000000E+000	0.0000000E+000	-0.925389	0.0000000E+000	0.0000000E+000	0.0000000E+000	0.925389	61.91	89.0746
26298.8	139.739	2.33879	139.758	-0.958861	09/05/2018 15:23:34.7841	0.00315023	0.00166688	2.58758	0.000724634	1	11	0.0203293	0.00014546	0.0071542	0.000119739	0.00715521	0.958861	0.724635	43.2957	43.3018	-89.0411	0.0000000E+000	0.0000000E+000	0.0000000E+000	89.0411	0.0000000E+000	0.0000000E+000	0.0000000E+000	-89.0411	0.0000000E+000	0.0000000E+000	0.0000000E+000	-0.958861	0.0000000E+000	0.0000000E+000	0.0000000E+000	0.958861	59.7484	89.0411
19677.7	140.132	2.40995	140.152	-0.985261	09/05/2018 15:23:35.8491	0.00315226	0.00169466	3.35612	0.00099232	1	11	0.0201868	0.000144035	0.00713403	0.000122689	0.00713509	0.985261	0.992319	57.7006	57.7091	-89.0147	0.0000000E+000	0.0000000E+000	0.0000000E+000	89.0147	0.0000000E+000	0.0000000E+000	0.0000000E+000	-89.0147	0.0000000E+000	0.0000000E+000	0.0000000E+000	-0.985261	0.0000000E+000	0.0000000E+000	0.0000000E+000	0.985261	58.1472	89.0147
14726.6	140.492	2.51442	140.515	-1.02532	09/05/2018 15:23:36.7881	0.00314263	0.00165979	4.29814	0.0013763	1	11	0.0212723	0.000151388	0.00711554	0.000127348	0.00711668	1.02532	1.37629	76.9001	76.9124	-88.9747	0.0000000E+000	0.0000000E+000	0.0000000E+000	88.9747	0.0000000E+000	0.0000000E+000	0.0000000E+000	-88.9747	0.0000000E+000	0.0000000E+000	0.0000000E+000	-1.02532	0.0000000E+000	0.0000000E+000	0.0000000E+000	1.02532	55.8747	88.9747
11025.4	140.866	2.64823	140.891	-1.07701	09/05/2018 15:23:37.7261	0.00315762	0.00167956	5.45093	0.00192582	1	11	0.0219618	0.000155878	0.00709644	0.000133411	0.00709769	1.07701	1.92582	102.439	102.457	-88.923	0.0000000E+000	0.0000000E+000	0.0000000E+000	88.923	0.0000000E+000	0.0000000E+000	0.0000000E+000	-88.923	0.0000000E+000	0.0000000E+000	0.0000000E+000	-1.07701	0.0000000E+000	0.0000000E+000	0.0000000E+000	1.07701	53.1925	88.923
8325.19	141.21	2.86899	141.239	-1.16393	09/05/2018 15:23:38.9616	0.00317008	0.00176255	6.6634	0.00274946	1	11	0.0202748	0.000143549	0.00707874	0.000143821	0.0070802	1.16393	2.74946	135.326	135.354	-88.8361	0.0000000E+000	0.0000000E+000	0.0000000E+000	88.8361	0.0000000E+000	0.0000000E+000	0.0000000E+000	-88.8361	0.0000000E+000	0.0000000E+000	0.0000000E+000	-1.16393	0.0000000E+000	0.0000000E+000	0.0000000E+000	1.16393	49.2192	88.8361
6195.49	141.621	3.11487	141.655	-1.25998	09/05/2018 15:23:40.3768	0.00316832	0.00172842	8.24716	0.00398766	1	11	0.0205023	0.000144734	0.00705768	0.000155229	0.00705939	1.25998	3.98765	181.304	181.347	-88.74	0.0000000E+000	0.0000000E+000	0.0000000E+000	88.74	0.0000000E+000	0.0000000E+000	0.0000000E+000	-88.74	0.0000000E+000	0.0000000E+000	0.0000000E+000	-1.25998	0.0000000E+000	0.0000000E+000	0.0000000E+000	1.25998	45.4661	88.74
4621.48	142.103	3.52691	142.146	-1.42176	09/05/2018 15:23:42.0657	0.00317141	0.00171313	9.76439	0.00601121	1	11	0.0206255	0.000145101	0.00703284	0.000174551	0.007035	1.42176	6.01122	242.198	242.272	-88.5782	0.0000000E+000	0.0000000E+000	0.0000000E+000	88.5782	0.0000000E+000	0.0000000E+000	0.0000000E+000	-88.5782	0.0000000E+000	0.0000000E+000	0.0000000E+000	-1.42176	0.0000000E+000	0.0000000E+000	0.0000000E+000	1.42176	40.291	88.5782
3456.11	142.624	4.00176	142.681	-1.60718	09/05/2018 15:23:43.7527	0.00316437	0.00169019	11.5075	0.00905221	1	11	0.0206915	0.000145019	0.00700591	0.000196572	0.00700866	1.60718	9.05221	322.625	322.752	-88.3928	0.0000000E+000	0.0000000E+000	0.0000000E+000	88.3928	0.0000000E+000	0.0000000E+000	0.0000000E+000	-88.3928	0.0000000E+000	0.0000000E+000	0.0000000E+000	-1.60718	0.0000000E+000	0.0000000E+000	0.0000000E+000	1.60718	35.6404	88.3928
2585.83	143.268	4.53099	143.339	-1.81143	09/05/2018 15:23:45.4407	0.00317167	0.00171481	13.584	0.0135732	1	11	0.0207347	0.000144655	0.00697297	0.000220527	0.00697646	1.81143	13.5732	429.179	429.394	-88.1886	0.0000000E+000	0.0000000E+000	0.0000000E+000	88.1886	0.0000000E+000	0.0000000E+000	0.0000000E+000	-88.1886	0.0000000E+000	0.0000000E+000	0.0000000E+000	-1.81143	0.0000000E+000	0.0000000E+000	0.0000000E+000	1.81143	31.6195	88.1886
1935.62	143.867	5.17017	143.96	-2.05816	09/05/2018 15:23:47.1287	0.00316494	0.00172935	15.9036	0.0205127	1	11	0.020747	0.000144116	0.00694189	0.000249472	0.00694638	2.05816	20.5126	570.792	571.161	-87.9418	0.0000000E+000	0.0000000E+000	0.0000000E+000	87.9418	0.0000000E+000	0.0000000E+000	0.0000000E+000	-87.9418	0.0000000E+000	0.0000000E+000	0.0000000E+000	-2.05816	0.0000000E+000	0.0000000E+000	0.0000000E+000	2.05816	27.8264	87.9418
1448.61	144.703	5.95583	144.826	-2.3569	09/05/2018 15:23:48.8179	0.00316775	0.00172264	18.447	0.0311975	1	11	0.0207595	0.000143342	0.00689901	0.000283956	0.00690486	2.3569	31.1975	757.977	758.619	-87.6431	0.0000000E+000	0.0000000E+000	0.0000000E+000	87.6431	0.0000000E+000	0.0000000E+000	0.0000000E+000	-87.6431	0.0000000E+000	0.0000000E+000	0.0000000E+000	-2.3569	0.0000000E+000	0.0000000E+000	0.0000000E+000	2.3569	24.296	87.6431
1083.96	145.62	6.83998	145.78	-2.68929	09/05/2018 15:23:50.5069	0.0031676	0.00173345	21.4661	0.0472567	1	11	0.020769	0.000142467	0.00685208	0.000321852	0.00685963	2.68929	47.2566	1006.07	1007.18	-87.3107	0.0000000E+000	0.0000000E+000	0.0000000E+000	87.3107	0.0000000E+000	0.0000000E+000	0.0000000E+000	-87.3107	0.0000000E+000	0.0000000E+000	0.0000000E+000	-2.68929	0.0000000E+000	0.0000000E+000	0.0000000E+000	2.68929	21.2895	87.3107
811.298	146.634	7.86592	146.845	-3.07059	09/05/2018 15:23:52.1914	0.00316705	0.0017163	24.9397	0.0715603	1	11	0.0207679	0.000141428	0.00680014	0.000364781	0.00680991	3.07059	71.5603	1334.01	1335.92	-86.9294	0.0000000E+000	0.0000000E+000	0.0000000E+000	86.9294	0.0000000E+000	0.0000000E+000	0.0000000E+000	-86.9294	0.0000000E+000	0.0000000E+000	0.0000000E+000	-3.07059	0.0000000E+000	0.0000000E+000	0.0000000E+000	3.07059	18.6417	86.9294
607.527	147.789	9.09809	148.069	-3.52276	09/05/2018 15:23:53.8709	0.00315897	0.00167769	28.7941	0.108712	1	11	0.0207686	0.000140263	0.00674085	0.000414976	0.00675361	3.52276	108.712	1765.91	1769.26	-86.4772	0.0000000E+000	0.0000000E+000	0.0000000E+000	86.4772	0.0000000E+000	0.0000000E+000	0.0000000E+000	-86.4772	0.0000000E+000	0.0000000E+000	0.0000000E+000	-3.52276	0.0000000E+000	0.0000000E+000	0.0000000E+000	3.52276	16.244	86.4772
454.564	149.196	10.5214	149.566	-4.03388	09/05/2018 15:23:55.5600	0.00317068	0.00170679	33.2775	0.164677	1	11	0.020772	0.000138882	0.00666944	0.000470336	0.00668601	4.03388	164.677	2335.15	2340.95	-85.9661	0.0000000E+000	0.0000000E+000	0.0000000E+000	85.9661	0.0000000E+000	0.0000000E+000	0.0000000E+000	-85.9661	0.0000000E+000	0.0000000E+000	0.0000000E+000	-4.03388	0.0000000E+000	0.0000000E+000	0.0000000E+000	4.03388	14.1802	85.9661
340.109	150.725	12.2241	151.22	-4.63666	09/05/2018 15:23:57.2477	0.00317359	0.00175844	38.2812	0.250151	1	11	0.0207698	0.000137348	0.00659125	0.000534565	0.00661289	4.63666	250.151	3084.4	3094.52	-85.3633	0.0000000E+000	0.0000000E+000	0.0000000E+000	85.3633	0.0000000E+000	0.0000000E+000	0.0000000E+000	-85.3633	0.0000000E+000	0.0000000E+000	0.0000000E+000	-4.63666	0.0000000E+000	0.0000000E+000	0.0000000E+000	4.63666	12.3301	85.3633
254.43	152.544	14.266	153.209	-5.34279	09/05/2018 15:23:58.9382	0.00316414	0.0017079	43.8481	0.380174	1	11	0.0207712	0.000135574	0.00649867	0.000607758	0.00652702	5.34279	380.174	4065.14	4082.88	-84.6572	0.0000000E+000	0.0000000E+000	0.0000000E+000	84.6572	0.0000000E+000	0.0000000E+000	0.0000000E+000	-84.6572	0.0000000E+000	0.0000000E+000	0.0000000E+000	-5.34279	0.0000000E+000	0.0000000E+000	0.0000000E+000	5.34279	10.6928	84.6572
190.549	154.674	16.6059	155.563	-6.12781	09/05/2018 15:24:00.6192	0.00316444	0.00173476	50.2982	0.573141	1	11	0.0207721	0.000133528	0.00639152	0.000686195	0.00642825	6.12781	573.14	5338.49	5369.17	-83.8722	0.0000000E+000	0.0000000E+000	0.0000000E+000	83.8722	0.0000000E+000	0.0000000E+000	0.0000000E+000	-83.8722	0.0000000E+000	0.0000000E+000	0.0000000E+000	-6.12781	0.0000000E+000	0.0000000E+000	0.0000000E+000	6.12781	9.31444	83.8722
142.492	157.047	19.3904	158.239	-7.03865	09/05/2018 15:24:02.3333	0.00316468	0.00171107	57.6025	0.864946	1	11	0.020767	0.000131238	0.00627192	0.00077439	0.00631955	7.03865	864.946	7005.35	7058.55	-82.9613	0.0000000E+000	0.0000000E+000	0.0000000E+000	82.9613	0.0000000E+000	0.0000000E+000	0.0000000E+000	-82.9613	0.0000000E+000	0.0000000E+000	0.0000000E+000	-7.03865	0.0000000E+000	0.0000000E+000	0.0000000E+000	7.03865	8.09918	82.9613
106.673	159.944	22.7143	161.549	-8.08274	09/05/2018 15:24:03.9956	0.00316138	0.0016499	65.6852	1.29855	1	11	0.0207691	0.000128562	0.00612858	0.000870343	0.00619007	8.08274	1298.55	9143.8	9235.55	-81.9173	0.0000000E+000	0.0000000E+000	0.0000000E+000	81.9173	0.0000000E+000	0.0000000E+000	0.0000000E+000	-81.9173	0.0000000E+000	0.0000000E+000	0.0000000E+000	-8.08274	0.0000000E+000	0.0000000E+000	0.0000000E+000	8.08274	7.04157	81.9173
79.8212	163.244	26.6676	165.408	-9.27794	09/05/2018 15:24:05.6862	0.00316427	0.00169075	74.7682	1.94346	1	11	0.0207687	0.00012556	0.00596658	0.000974707	0.00604567	9.27794	1943.46	11896.7	12054.4	-80.7221	0.0000000E+000	0.0000000E+000	0.0000000E+000	80.7221	0.0000000E+000	0.0000000E+000	0.0000000E+000	-80.7221	0.0000000E+000	0.0000000E+000	0.0000000E+000	-9.27794	0.0000000E+000	0.0000000E+000	0.0000000E+000	9.27794	6.12141	80.7221
59.7895	167.181	31.3168	170.089	-10.6098	09/05/2018 15:24:07.3794	0.00316543	0.00165867	84.9997	2.8815	1	11	0.0207701	0.000122113	0.00577875	0.00108249	0.00587926	10.6098	2881.5	15382.6	15650.1	-79.3902	0.0000000E+000	0.0000000E+000	0.0000000E+000	79.3902	0.0000000E+000	0.0000000E+000	0.0000000E+000	-79.3902	0.0000000E+000	0.0000000E+000	0.0000000E+000	-10.6098	0.0000000E+000	0.0000000E+000	0.0000000E+000	10.6098	5.33839	79.3902
44.728	171.858	36.7652	175.746	-12.0752	09/05/2018 15:24:09.0760	0.0031622	0.00169056	96.784	4.2355	1	11	0.0207683	0.000118172	0.00556413	0.00119032	0.00569002	12.0752	4235.5	19798.7	20246.7	-77.9248	0.0000000E+000	0.0000000E+000	0.0000000E+000	77.9248	0.0000000E+000	0.0000000E+000	0.0000000E+000	-77.9248	0.0000000E+000	0.0000000E+000	0.0000000E+000	-12.0752	0.0000000E+000	0.0000000E+000	0.0000000E+000	12.0752	4.67447	77.9248
33.4276	177.309	43.1707	182.489	-13.684	09/05/2018 15:24:11.0942	0.00316419	9.99702e-05	110.287	6.17208	1	12	0.020783	0.000113886	0.00532424	0.00129633	0.00547978	13.684	6172.08	25349.7	26090.3	-76.316	0.0000000E+000	0.0000000E+000	0.0000000E+000	76.316	0.0000000E+000	0.0000000E+000	0.0000000E+000	-76.316	0.0000000E+000	0.0000000E+000	0.0000000E+000	-13.684	0.0000000E+000	0.0000000E+000	0.0000000E+000	13.684	4.10716	76.316
25.0401	183.722	50.5438	190.548	-15.3821	09/05/2018 15:24:12.7794	0.00316257	0.000142554	125.753	8.84799	1	12	0.0207752	0.000109029	0.00506003	0.00139207	0.00524803	15.3821	8847.99	32161.6	33356.5	-74.6179	0.0000000E+000	0.0000000E+000	0.0000000E+000	74.6179	0.0000000E+000	0.0000000E+000	0.0000000E+000	-74.6179	0.0000000E+000	0.0000000E+000	0.0000000E+000	-15.3821	0.0000000E+000	0.0000000E+000	0.0000000E+000	15.3821	3.63491	74.6179
18.735	191.373	59.3491	200.364	-17.2298	09/05/2018 15:24:14.5733	0.00316036	0.000103757	143.137	12.5585	1	12	0.0207755	0.000103688	0.00476693	0.00147833	0.0049909	17.2298	12558.5	40495.4	42398	-72.7702	0.0000000E+000	0.0000000E+000	0.0000000E+000	72.7702	0.0000000E+000	0.0000000E+000	0.0000000E+000	-72.7702	0.0000000E+000	0.0000000E+000	0.0000000E+000	-17.2298	0.0000000E+000	0.0000000E+000	0.0000000E+000	17.2298	3.22453	72.7702
14.0176	200.39	69.5547	212.118	-19.1417	09/05/2018 15:24:16.3728	0.00316108	0.00012859	163.237	17.5516	1	12	0.0207744	9.79377e-05	0.0044537	0.00154586	0.00471435	19.1417	17551.6	50566.9	53526.3	-70.8583	0.0000000E+000	0.0000000E+000	0.0000000E+000	70.8583	0.0000000E+000	0.0000000E+000	0.0000000E+000	-70.8583	0.0000000E+000	0.0000000E+000	0.0000000E+000	-19.1417	0.0000000E+000	0.0000000E+000	0.0000000E+000	19.1417	2.88105	70.8583
10.5007	210.958	81.3598	226.103	-21.0901	09/05/2018 15:24:17.9842	0.00315577	0.000116192	186.291	24.1213	1	12	0.0207658	9.18422e-05	0.00412651	0.00159147	0.00442276	21.0901	24121.3	62544	67034.3	-68.9099	0.0000000E+000	0.0000000E+000	0.0000000E+000	68.9099	0.0000000E+000	0.0000000E+000	0.0000000E+000	-68.9099	0.0000000E+000	0.0000000E+000	0.0000000E+000	-21.0901	0.0000000E+000	0.0000000E+000	0.0000000E+000	21.0901	2.5929	68.9099
7.85965	223.675	95.1052	243.055	-23.0349	09/05/2018 15:24:20.1053	0.00316017	0.000114765	212.918	32.5996	1	12	0.0207684	8.54476e-05	0.00378625	0.00160989	0.0041143	23.0349	32599.6	76670.1	83312.9	-66.9651	0.0000000E+000	0.0000000E+000	0.0000000E+000	66.9651	0.0000000E+000	0.0000000E+000	0.0000000E+000	-66.9651	0.0000000E+000	0.0000000E+000	0.0000000E+000	-23.0349	0.0000000E+000	0.0000000E+000	0.0000000E+000	23.0349	2.35187	66.9651
5.88291	238.719	110.805	263.181	-24.8991	09/05/2018 15:24:21.5557	0.00315787	7.36542e-05	244.157	43.279	1	12	0.0207669	7.89073e-05	0.00344649	0.00159974	0.00379967	24.8991	43279	93240.7	102795	-65.1009	0.0000000E+000	0.0000000E+000	0.0000000E+000	65.1009	0.0000000E+000	0.0000000E+000	0.0000000E+000	-65.1009	0.0000000E+000	0.0000000E+000	0.0000000E+000	-24.8991	0.0000000E+000	0.0000000E+000	0.0000000E+000	24.8991	2.15441	65.1009
4.39893	256.68	128.898	287.227	-26.6646	09/05/2018 15:24:23.4621	0.00316372	0.000112497	280.69	56.5288	1	12	0.0207691	7.23092e-05	0.0031113	0.00156242	0.00348157	26.6646	56528.8	112568	125965	-63.3354	0.0000000E+000	0.0000000E+000	0.0000000E+000	63.3354	0.0000000E+000	0.0000000E+000	0.0000000E+000	-63.3354	0.0000000E+000	0.0000000E+000	0.0000000E+000	-26.6646	0.0000000E+000	0.0000000E+000	0.0000000E+000	26.6646	1.99134	63.3354
3.29363	277.938	149.164	315.436	-28.2216	09/05/2018 15:24:25.9715	0.00316021	0.000136639	323.951	72.4417	1	12	0.0207673	6.58368e-05	0.00279336	0.00149914	0.00317022	28.2216	72441.7	134981	153191	-61.7784	0.0000000E+000	0.0000000E+000	0.0000000E+000	61.7784	0.0000000E+000	0.0000000E+000	0.0000000E+000	-61.7784	0.0000000E+000	0.0000000E+000	0.0000000E+000	-28.2216	0.0000000E+000	0.0000000E+000	0.0000000E+000	28.2216	1.8633	61.7784
2.46607	302.483	171.233	347.588	-29.5138	09/05/2018 15:24:29.2944	0.00316183	0.000101534	376.901	91.4693	1	12	0.020768	5.97488e-05	0.00250365	0.00141729	0.00287697	29.5138	91469.2	161580	185674	-60.4862	0.0000000E+000	0.0000000E+000	0.0000000E+000	60.4862	0.0000000E+000	0.0000000E+000	0.0000000E+000	-60.4862	0.0000000E+000	0.0000000E+000	0.0000000E+000	-29.5138	0.0000000E+000	0.0000000E+000	0.0000000E+000	29.5138	1.7665	60.4862
1.84257	330.682	195.149	383.971	-30.5466	09/05/2018 15:24:33.7107	0.00316582	0.000120058	442.618	114.331	1	12	0.0207678	5.40869e-05	0.00224292	0.00132364	0.00260436	30.5466	114331	193735	224956	-59.4534	0.0000000E+000	0.0000000E+000	0.0000000E+000	59.4534	0.0000000E+000	0.0000000E+000	0.0000000E+000	-59.4534	0.0000000E+000	0.0000000E+000	0.0000000E+000	-30.5466	0.0000000E+000	0.0000000E+000	0.0000000E+000	30.5466	1.69451	59.4534
1.38128	360.24	220.61	422.424	-31.4831	09/05/2018 15:24:40.3451	0.00316876	3.92224e-05	522.294	142.452	1	13	0.0207743	4.91788e-05	0.00201881	0.00123631	0.00236729	31.4831	142452	232614	272767	-58.5169	0.0000000E+000	0.0000000E+000	0.0000000E+000	58.5169	0.0000000E+000	0.0000000E+000	0.0000000E+000	-58.5169	0.0000000E+000	0.0000000E+000	0.0000000E+000	-31.4831	0.0000000E+000	0.0000000E+000	0.0000000E+000	31.4831	1.63293	58.5169
1.0334	389.647	249.232	462.538	-32.6044	09/05/2018 15:24:48.1609	0.00317158	2.20919e-05	617.943	179.416	1	13	0.0207712	4.4907e-05	0.00182128	0.00116496	0.00216199	32.6044	179416	280497	332970	-57.3956	0.0000000E+000	0.0000000E+000	0.0000000E+000	57.3956	0.0000000E+000	0.0000000E+000	0.0000000E+000	-57.3956	0.0000000E+000	0.0000000E+000	0.0000000E+000	-32.6044	0.0000000E+000	0.0000000E+000	0.0000000E+000	32.6044	1.56339	57.3956
0.773208	416.497	284.716	504.512	-34.3564	09/05/2018 15:24:58.5826	0.00317166	2.00533e-05	722.957	230.246	1	13	0.0207703	4.11691e-05	0.00163632	0.00111858	0.00198211	34.3564	230246	336816	407992	-55.6436	0.0000000E+000	0.0000000E+000	0.0000000E+000	55.6436	0.0000000E+000	0.0000000E+000	0.0000000E+000	-55.6436	0.0000000E+000	0.0000000E+000	0.0000000E+000	-34.3564	0.0000000E+000	0.0000000E+000	0.0000000E+000	34.3564	1.46285	55.6436
0.578532	439.764	332.224	551.149	-37.0696	09/05/2018 15:25:12.4854	0.00317489	8.1924e-05	828.059	300.875	1	13	0.0207728	3.769e-05	0.00144771	0.00109369	0.00181439	37.0696	300875	398267	499142	-52.9304	0.0000000E+000	0.0000000E+000	0.0000000E+000	52.9304	0.0000000E+000	0.0000000E+000	0.0000000E+000	-52.9304	0.0000000E+000	0.0000000E+000	0.0000000E+000	-37.0696	0.0000000E+000	0.0000000E+000	0.0000000E+000	37.0696	1.3237	52.9304
0.433065	459.795	398.528	608.47	-40.9172	09/05/2018 15:25:31.0340	0.0031684	8.06238e-05	922.163	395.592	1	13	0.0207676	3.41308e-05	0.0012419	0.00107642	0.00164347	40.9172	395592	456407	603987	-49.0828	0.0000000E+000	0.0000000E+000	0.0000000E+000	49.0828	0.0000000E+000	0.0000000E+000	0.0000000E+000	-49.0828	0.0000000E+000	0.0000000E+000	0.0000000E+000	-40.9172	0.0000000E+000	0.0000000E+000	0.0000000E+000	40.9172	1.15373	49.0828
0.323901	477.003	492.002	685.273	-45.8868	09/05/2018 15:25:55.8124	0.00317123	3.67945e-05	998.712	514.811	1	13	0.0207671	3.03049e-05	0.00101577	0.00104771	0.00145927	45.8868	514811	499117	717041	-44.1132	0.0000000E+000	0.0000000E+000	0.0000000E+000	44.1132	0.0000000E+000	0.0000000E+000	0.0000000E+000	-44.1132	0.0000000E+000	0.0000000E+000	0.0000000E+000	-45.8868	0.0000000E+000	0.0000000E+000	0.0000000E+000	45.8868	0.969514	44.1132
0.242323	493.063	620.731	792.728	-51.539	09/05/2018 15:26:28.9110	0.00316953	2.36333e-05	1058.09	648.754	1	13	0.0207663	2.6196e-05	0.00078461	0.000987768	0.00126147	51.539	648754	515322	828516	-38.461	0.0000000E+000	0.0000000E+000	0.0000000E+000	38.461	0.0000000E+000	0.0000000E+000	0.0000000E+000	-38.461	0.0000000E+000	0.0000000E+000	0.0000000E+000	-51.539	0.0000000E+000	0.0000000E+000	0.0000000E+000	51.539	0.794326	38.461
0.181534	509.735	795	944.381	-57.333	09/05/2018 15:27:13.0727	0.00317382	2.02851e-05	1102.8	781.511	1	13	0.0207659	2.19889e-05	0.000571545	0.000891401	0.00105889	57.333	781511	501086	928357	-32.667	0.0000000E+000	0.0000000E+000	0.0000000E+000	32.667	0.0000000E+000	0.0000000E+000	0.0000000E+000	-32.667	0.0000000E+000	0.0000000E+000	0.0000000E+000	-57.333	0.0000000E+000	0.0000000E+000	0.0000000E+000	57.333	0.641176	32.667
0.135846	528.66	1030.54	1158.23	-62.8424	09/05/2018 15:28:12.0659	0.00317056	1.98488e-05	1136.87	900.016	1	13	0.0207667	1.79298e-05	0.000394084	0.000768204	0.000863389	62.8424	900016	461703	1.01153e+06	-27.1576	0.0000000E+000	0.0000000E+000	0.0000000E+000	27.1576	0.0000000E+000	0.0000000E+000	0.0000000E+000	-27.1576	0.0000000E+000	0.0000000E+000	0.0000000E+000	-62.8424	0.0000000E+000	0.0000000E+000	0.0000000E+000	62.8424	0.512994	27.1576
0.101725	551.276	1344.75	1453.36	-67.7089	09/05/2018 15:29:30.8262	0.00316665	2.18069e-05	1163.46	996.063	1	13	0.0207656	1.4288e-05	0.00026099	0.000636642	0.000688062	67.7089	996063	408334	1.07651e+06	-22.2911	0.0000000E+000	0.0000000E+000	0.0000000E+000	22.2911	0.0000000E+000	0.0000000E+000	0.0000000E+000	-22.2911	0.0000000E+000	0.0000000E+000	0.0000000E+000	-67.7089	0.0000000E+000	0.0000000E+000	0.0000000E+000	67.7089	0.409948	22.291
0.0761037	580.279	1764.72	1857.67	-71.798	09/05/2018 15:31:16.0812	0.00317577	2.15004e-05	1185.06	1069.43	1	13	0.0207656	1.11783e-05	0.00016815	0.000511371	0.000538308	71.798	1.06943e+06	351651	1.12576e+06	-18.202	0.0000000E+000	0.0000000E+000	0.0000000E+000	18.202	0.0000000E+000	0.0000000E+000	0.0000000E+000	-18.202	0.0000000E+000	0.0000000E+000	0.0000000E+000	-71.798	0.0000000E+000	0.0000000E+000	0.0000000E+000	71.798	0.328823	18.202
0.0569665	617.155	2320.91	2401.56	-75.109	09/05/2018 15:33:36.6752	0.00316744	2.45119e-05	1203.77	1124.27	1	13	0.0207576	8.64336e-06	0.000107005	0.000402411	0.000416395	75.109	1.12427e+06	298956	1.16334e+06	-14.891	0.0000000E+000	0.0000000E+000	0.0000000E+000	14.891	0.0000000E+000	0.0000000E+000	0.0000000E+000	-14.891	0.0000000E+000	0.0000000E+000	0.0000000E+000	-75.109	0.0000000E+000	0.0000000E+000	0.0000000E+000	75.109	0.265911	14.891
0.0426446	666.656	3058.79	3130.6	-77.7048	09/05/2018 15:36:44.4658	0.00317012	2.27432e-05	1220.13	1164.8	1	13	0.0207611	6.63166e-06	6.80217e-05	0.000312101	0.000319428	77.7048	1.1648e+06	253865	1.19214e+06	-12.2952	0.0000000E+000	0.0000000E+000	0.0000000E+000	12.2952	0.0000000E+000	0.0000000E+000	0.0000000E+000	-12.2952	0.0000000E+000	0.0000000E+000	0.0000000E+000	-77.7048	0.0000000E+000	0.0000000E+000	0.0000000E+000	77.7048	0.217948	12.2952
0.0319138	729.795	4033.41	4098.9	-79.744	09/05/2018 15:40:55.3794	0.00316952	1.79768e-05	1236.43	1197.23	1	13	0.0207633	5.06556e-06	4.34375e-05	0.00024007	0.000243968	79.744	1.19723e+06	216624	1.21667e+06	-10.256	0.0000000E+000	0.0000000E+000	0.0000000E+000	10.256	0.0000000E+000	0.0000000E+000	0.0000000E+000	-10.256	0.0000000E+000	0.0000000E+000	0.0000000E+000	-79.744	0.0000000E+000	0.0000000E+000	0.0000000E+000	79.744	0.180937	10.256
0.0238768	816.457	5325.09	5387.32	-81.2831	09/05/2018 15:47:12.7045	0.00317206	2.72604e-08	1251.75	1223	1	14	0.020764	3.85424e-06	2.81312e-05	0.000183477	0.000185621	81.2831	1.223e+06	187513	1.23729e+06	-8.71687	0.0000000E+000	0.0000000E+000	0.0000000E+000	8.71687	0.0000000E+000	0.0000000E+000	0.0000000E+000	-8.71687	0.0000000E+000	0.0000000E+000	0.0000000E+000	-81.2831	0.0000000E+000	0.0000000E+000	0.0000000E+000	81.2831	0.153323	8.71686
0.0178412	937.168	7049.15	7111.17	-82.4271	09/05/2018 15:54:41.4844	0.00317522	4.05673e-06	1265.5	1243.52	1	14	0.0207647	2.92e-06	1.85325e-05	0.000139397	0.000140624	82.4271	1.24352e+06	165323	1.25446e+06	-7.57293	0.0000000E+000	0.0000000E+000	0.0000000E+000	7.57293	0.0000000E+000	0.0000000E+000	0.0000000E+000	-7.57293	0.0000000E+000	0.0000000E+000	0.0000000E+000	-82.4271	0.0000000E+000	0.0000000E+000	0.0000000E+000	82.4271	0.132948	7.57294
0.0133776	1095.54	9288.46	9352.84	-83.2733	09/05/2018 16:04:39.9850	0.00317281	2.40779e-06	1280.85	1263.28	1	14	0.0207643	2.22011e-06	1.25239e-05	0.000106183	0.000106919	83.2733	1.26328e+06	148999	1.27204e+06	-6.72672	0.0000000E+000	0.0000000E+000	0.0000000E+000	6.72672	0.0000000E+000	0.0000000E+000	0.0000000E+000	-6.72672	0.0000000E+000	0.0000000E+000	0.0000000E+000	-83.2733	0.0000000E+000	0.0000000E+000	0.0000000E+000	83.2733	0.117946	6.72672
0.0100058	1317.07	12270.2	12340.7	-83.8734	09/05/2018 16:18:00.1511	0.00317511	2.59847e-06	1296.34	1281.57	1	14	0.0207645	1.6826e-06	8.64831e-06	8.05699e-05	8.10328e-05	83.8734	1.28157e+06	137563	1.28893e+06	-6.12663	0.0000000E+000	0.0000000E+000	0.0000000E+000	6.12663	0.0000000E+000	0.0000000E+000	0.0000000E+000	-6.12663	0.0000000E+000	0.0000000E+000	0.0000000E+000	-83.8734	0.0000000E+000	0.0000000E+000	0.0000000E+000	83.8734	0.107339	6.12662