File: exp data/EIS mpt files/single type poluted/RM_stacked second run S3_1_C03.mpt
EC-Lab ASCII FILE
Nb header lines : 66

Potentio Electrochemical Impedance Spectroscopy

Run on channel : 3 (SN 13993)
User :
CE vs. WE compliance from -10 V to 10 V
Electrode connection : standard
Potential control : Ewe
Ewe ctrl range : min = -1.00 V, max = 1.00 V
Safety Limits :
	Do not start on E overload
Acquisition started on : 09/05/2018 13:40:25.000
Loaded Setting File : NONE
Saved on :
	File : RM_stacked second run S3_1_C03.mpr
	Directory : D:\Robert\Stacked cells\Second run 3% and 12% PVDF electrodes 12%compressed\
	Host : 10.5.5.6
Device : VMP3 (SN 0628)
Address : 10.5.5.5
EC-Lab for windows v11.17 (software)
Internet server v11.16 (firmware)
Command interpretor v11.16 (firmware)
Electrode material :
Initial state :
Electrolyte :
Comments :
Electrode surface area : 0.001 cm²
Characteristic mass : 0.001 g
Equivalent Weight : 0.000 g/eq.
Density : 0.000 g/cm3
Volume (V) : 0.000 m³
Text export
   Mode : Standard
   Time format : Elapsed
Cycle Definition : Charge/Discharge alternance
Mode                Single sine
E (V)               0.0000
vs.                 Eoc
tE (h:m:s)          0:00:3.0000
record              1
dI                  0.000
unit dI             mA
dt (s)              60.000
fi                  200.000
unit fi             kHz
ff                  10.000
unit ff             mHz
Nd                  8
Points              per decade
spacing             Logarithmic
Va (mV)             20.0
pw                  3.00
Na                  5
corr                0
E range min (V)     -1.000
E range max (V)     1.000
I Range             Auto
Bandwidth           5
nc cycles           0
goto Ns'            0
nr cycles           0
inc. cycle          0

freq/Hz	Re(Z)/Ohm	-Im(Z)/Ohm	|Z|/Ohm	Phase(Z)/deg	time/s	<Ewe>/V	<I>/mA	Cs/µF	Cp/µF	cycle number	I Range	|Ewe|/V	|I|/A	Re(Y)/Ohm-1	Im(Y)/Ohm-1	|Y|/Ohm-1	Phase(Y)/deg	Re(C)/nF	Im(C)/nF	|C|/nF	Phase(C)/deg	Re(M)	Im(M)	|M|	Phase(M)/deg	Re(Permittivity)	Im(Permittivity)	|Permittivity|	Phase(Permittivity)/deg	Re(Resistivity)/Ohm.cm	Im(Resistivity)/Ohm.cm	|Resistivity|/Ohm.cm	Phase(Resistivity)/deg	Re(Conductivity)/mS/cm	Im(Conductivity)/mS/cm	|Conductivity|/mS/cm	Phase(Conductivity)/deg	Tan(Delta)	Loss Angle(Delta)/deg
200019	160.179	0.95228	160.182	-0.340625	09/05/2018 13:40:30.3331	-0.0013755	0.00226125	0.835571	2.95315e-05	1	11	0.0182195	0.000113742	0.0062428	3.7114e-05	0.00624291	0.340625	0.0295313	4.96738	4.96746	-89.6594	0.0000000E+000	0.0000000E+000	0.0000000E+000	89.6594	0.0000000E+000	0.0000000E+000	0.0000000E+000	-89.6594	0.0000000E+000	0.0000000E+000	0.0000000E+000	-0.340625	0.0000000E+000	0.0000000E+000	0.0000000E+000	0.340625	168.206	89.6594
149678	159.6	1.42081	159.606	-0.510053	09/05/2018 13:40:31.3981	-0.00133705	0.00242198	0.748387	5.93063e-05	1	11	0.020499	0.000128435	0.00626518	5.57748e-05	0.00626543	0.510053	0.0593066	6.66187	6.66214	-89.4899	0.0000000E+000	0.0000000E+000	0.0000000E+000	89.4899	0.0000000E+000	0.0000000E+000	0.0000000E+000	-89.4899	0.0000000E+000	0.0000000E+000	0.0000000E+000	-0.510053	0.0000000E+000	0.0000000E+000	0.0000000E+000	0.510053	112.33	89.4899
112012	159.499	1.96084	159.511	-0.704345	09/05/2018 13:40:32.4631	-0.0013176	0.00240726	0.724627	0.000109501	1	11	0.0207546	0.000130114	0.00626868	7.70657e-05	0.00626916	0.704345	0.109501	8.90703	8.90771	-89.2957	0.0000000E+000	0.0000000E+000	0.0000000E+000	89.2957	0.0000000E+000	0.0000000E+000	0.0000000E+000	-89.2957	0.0000000E+000	0.0000000E+000	0.0000000E+000	-0.704345	0.0000000E+000	0.0000000E+000	0.0000000E+000	0.704345	81.3421	89.2957
83828.1	159.799	2.55178	159.82	-0.914858	09/05/2018 13:40:33.5281	-0.00130588	0.00241118	0.744024	0.000189676	1	11	0.0206988	0.000129513	0.00625625	9.99039e-05	0.00625705	0.914858	0.189676	11.878	11.8796	-89.0851	0.0000000E+000	0.0000000E+000	0.0000000E+000	89.0851	0.0000000E+000	0.0000000E+000	0.0000000E+000	-89.0851	0.0000000E+000	0.0000000E+000	0.0000000E+000	-0.914858	0.0000000E+000	0.0000000E+000	0.0000000E+000	0.914858	62.6227	89.0851
62734.4	160.288	2.94128	160.315	-1.05126	09/05/2018 13:40:34.5931	-0.00129194	0.00247022	0.862539	0.000290338	1	11	0.0206018	0.000128508	0.00623668	0.000114443	0.00623773	1.05126	0.290339	15.8223	15.8249	-88.9487	0.0000000E+000	0.0000000E+000	0.0000000E+000	88.9487	0.0000000E+000	0.0000000E+000	0.0000000E+000	-88.9487	0.0000000E+000	0.0000000E+000	0.0000000E+000	-1.05126	0.0000000E+000	0.0000000E+000	0.0000000E+000	1.05126	54.4959	88.9487
46953.1	160.9	3.17845	160.932	-1.13168	09/05/2018 13:40:35.6581	-0.00128395	0.00247729	1.06645	0.000415995	1	11	0.0205046	0.000127412	0.0062126	0.000122725	0.00621381	1.13168	0.415995	21.0586	21.0627	-88.8683	0.0000000E+000	0.0000000E+000	0.0000000E+000	88.8683	0.0000000E+000	0.0000000E+000	0.0000000E+000	-88.8683	0.0000000E+000	0.0000000E+000	0.0000000E+000	-1.13168	0.0000000E+000	0.0000000E+000	0.0000000E+000	1.13168	50.6222	88.8683
35136.7	161.549	3.24187	161.581	-1.14963	09/05/2018 13:40:36.7231	-0.00128303	0.00244749	1.39721	0.000562437	1	11	0.0203498	0.000125941	0.0061876	0.000124169	0.00618884	1.14963	0.562437	28.0273	28.0329	-88.8504	0.0000000E+000	0.0000000E+000	0.0000000E+000	88.8504	0.0000000E+000	0.0000000E+000	0.0000000E+000	-88.8504	0.0000000E+000	0.0000000E+000	0.0000000E+000	-1.14963	0.0000000E+000	0.0000000E+000	0.0000000E+000	1.14963	49.8318	88.8504
26298.8	162.253	3.2782	162.287	-1.15746	09/05/2018 13:40:37.7881	-0.00127172	0.00245606	1.84607	0.000753276	1	11	0.0202946	0.000125054	0.00616068	0.000124472	0.00616194	1.15746	0.753275	37.2831	37.2908	-88.8425	0.0000000E+000	0.0000000E+000	0.0000000E+000	88.8425	0.0000000E+000	0.0000000E+000	0.0000000E+000	-88.8425	0.0000000E+000	0.0000000E+000	0.0000000E+000	-1.15746	0.0000000E+000	0.0000000E+000	0.0000000E+000	1.15746	49.4947	88.8425
19677.7	162.824	3.20757	162.855	-1.12856	09/05/2018 13:40:38.7271	-0.00126533	0.00243408	2.52156	0.000978175	1	11	0.021848	0.000134156	0.00613923	0.00012094	0.00614042	1.12856	0.978172	49.6545	49.6642	-88.8714	0.0000000E+000	0.0000000E+000	0.0000000E+000	88.8714	0.0000000E+000	0.0000000E+000	0.0000000E+000	-88.8714	0.0000000E+000	0.0000000E+000	0.0000000E+000	-1.12856	0.0000000E+000	0.0000000E+000	0.0000000E+000	1.12856	50.7624	88.8714
14726.6	163.393	3.21352	163.425	-1.12671	09/05/2018 13:40:39.7921	-0.00126567	0.00245364	3.36309	0.00130036	1	11	0.0202645	0.000123999	0.00611783	0.000120322	0.00611901	1.12671	1.30035	66.1175	66.1303	-88.8733	0.0000000E+000	0.0000000E+000	0.0000000E+000	88.8733	0.0000000E+000	0.0000000E+000	0.0000000E+000	-88.8733	0.0000000E+000	0.0000000E+000	0.0000000E+000	-1.12671	0.0000000E+000	0.0000000E+000	0.0000000E+000	1.12671	50.8457	88.8733
11025.4	163.879	3.2068	163.91	-1.12103	09/05/2018 13:40:40.7311	-0.00126891	0.00237691	4.50147	0.001723	1	11	0.0208342	0.000127107	0.00609973	0.00011936	0.0061009	1.12103	1.723	88.0515	88.0684	-88.879	0.0000000E+000	0.0000000E+000	0.0000000E+000	88.879	0.0000000E+000	0.0000000E+000	0.0000000E+000	-88.879	0.0000000E+000	0.0000000E+000	0.0000000E+000	-1.12103	0.0000000E+000	0.0000000E+000	0.0000000E+000	1.12103	51.1036	88.879
8325.19	164.331	3.30773	164.364	-1.15312	09/05/2018 13:40:41.8236	-0.00125395	0.00253671	5.77958	0.00234067	1	11	0.0211645	0.000128765	0.00608281	0.000122437	0.00608404	1.15312	2.34066	116.287	116.31	-88.8469	0.0000000E+000	0.0000000E+000	0.0000000E+000	88.8469	0.0000000E+000	0.0000000E+000	0.0000000E+000	-88.8469	0.0000000E+000	0.0000000E+000	0.0000000E+000	-1.15312	0.0000000E+000	0.0000000E+000	0.0000000E+000	1.15312	49.681	88.8469
6195.49	164.846	3.4643	164.882	-1.20391	09/05/2018 13:40:43.2388	-0.00126658	0.0022307	7.4153	0.00327349	1	11	0.0213703	0.000129609	0.00606359	0.000127429	0.00606493	1.20391	3.2735	155.766	155.801	-88.7961	0.0000000E+000	0.0000000E+000	0.0000000E+000	88.7961	0.0000000E+000	0.0000000E+000	0.0000000E+000	-88.7961	0.0000000E+000	0.0000000E+000	0.0000000E+000	-1.20391	0.0000000E+000	0.0000000E+000	0.0000000E+000	1.20391	47.5842	88.7961
4621.48	165.339	3.701	165.38	-1.28231	09/05/2018 13:40:44.9267	-0.00126204	0.0022199	9.30507	0.00466005	1	11	0.0214809	0.000129887	0.00604515	0.000135317	0.00604666	1.28231	4.66004	208.184	208.236	-88.7177	0.0000000E+000	0.0000000E+000	0.0000000E+000	88.7177	0.0000000E+000	0.0000000E+000	0.0000000E+000	-88.7177	0.0000000E+000	0.0000000E+000	0.0000000E+000	-1.28231	0.0000000E+000	0.0000000E+000	0.0000000E+000	1.28231	44.6741	88.7177
3456.11	165.975	4.03789	166.024	-1.39363	09/05/2018 13:40:46.6147	-0.00126636	0.00225435	11.4046	0.00674595	1	11	0.0215438	0.000129763	0.00602143	0.000146491	0.00602321	1.39363	6.74596	277.289	277.371	-88.6064	0.0000000E+000	0.0000000E+000	0.0000000E+000	88.6064	0.0000000E+000	0.0000000E+000	0.0000000E+000	-88.6064	0.0000000E+000	0.0000000E+000	0.0000000E+000	-1.39363	0.0000000E+000	0.0000000E+000	0.0000000E+000	1.39363	41.1045	88.6064
2585.83	166.609	4.49438	166.67	-1.54521	09/05/2018 13:40:48.3007	-0.00126923	0.00225603	13.6947	0.0099581	1	11	0.0215813	0.000129486	0.00599771	0.000161792	0.00599989	1.54521	9.9581	369.153	369.287	-88.4548	0.0000000E+000	0.0000000E+000	0.0000000E+000	88.4548	0.0000000E+000	0.0000000E+000	0.0000000E+000	-88.4548	0.0000000E+000	0.0000000E+000	0.0000000E+000	-1.54521	0.0000000E+000	0.0000000E+000	0.0000000E+000	1.54521	37.0706	88.4548
1935.62	167.248	4.95664	167.321	-1.69755	09/05/2018 13:40:49.9877	-0.00126377	0.00219997	16.5887	0.0145574	1	11	0.021593	0.000129051	0.0059739	0.000177045	0.00597653	1.69755	14.5574	491.2	491.416	-88.3025	0.0000000E+000	0.0000000E+000	0.0000000E+000	88.3025	0.0000000E+000	0.0000000E+000	0.0000000E+000	-88.3025	0.0000000E+000	0.0000000E+000	0.0000000E+000	-1.69755	0.0000000E+000	0.0000000E+000	0.0000000E+000	1.69755	33.7422	88.3025
1448.61	168.038	5.58909	168.131	-1.90501	09/05/2018 13:40:51.6769	-0.00126891	0.00212007	19.6575	0.0217228	1	11	0.0216038	0.000128494	0.00594446	0.000197718	0.00594775	1.90501	21.7228	653.103	653.464	-88.095	0.0000000E+000	0.0000000E+000	0.0000000E+000	88.095	0.0000000E+000	0.0000000E+000	0.0000000E+000	-88.095	0.0000000E+000	0.0000000E+000	0.0000000E+000	-1.90501	0.0000000E+000	0.0000000E+000	0.0000000E+000	1.90501	30.0653	88.095
1083.96	168.917	6.28305	169.034	-2.13019	09/05/2018 13:40:53.3649	-0.00126772	0.00214726	23.3688	0.0322872	1	11	0.0216096	0.000127842	0.00591189	0.000219899	0.00591598	2.13019	32.2872	868.027	868.627	-87.8698	0.0000000E+000	0.0000000E+000	0.0000000E+000	87.8698	0.0000000E+000	0.0000000E+000	0.0000000E+000	-87.8698	0.0000000E+000	0.0000000E+000	0.0000000E+000	-2.13019	0.0000000E+000	0.0000000E+000	0.0000000E+000	2.13019	26.8846	87.8698
811.298	169.879	7.09646	170.027	-2.39206	09/05/2018 13:40:55.0504	-0.00127676	0.00213571	27.6438	0.0481553	1	11	0.0216079	0.000127085	0.00587629	0.000245473	0.00588141	2.39206	48.1553	1152.77	1153.78	-87.6079	0.0000000E+000	0.0000000E+000	0.0000000E+000	87.6079	0.0000000E+000	0.0000000E+000	0.0000000E+000	-87.6079	0.0000000E+000	0.0000000E+000	0.0000000E+000	-2.39206	0.0000000E+000	0.0000000E+000	0.0000000E+000	2.39206	23.9386	87.6079
607.527	171.034	8.11559	171.226	-2.71666	09/05/2018 13:40:56.7309	-0.00127571	0.00214205	32.2801	0.0725162	1	11	0.0216145	0.000126234	0.00583367	0.000276809	0.00584023	2.71666	72.5161	1528.26	1529.98	-87.2833	0.0000000E+000	0.0000000E+000	0.0000000E+000	87.2833	0.0000000E+000	0.0000000E+000	0.0000000E+000	-87.2833	0.0000000E+000	0.0000000E+000	0.0000000E+000	-2.71666	0.0000000E+000	0.0000000E+000	0.0000000E+000	2.71666	21.0747	87.2833
454.564	172.296	9.25309	172.544	-3.0741	09/05/2018 13:40:58.4199	-0.00126384	0.0021901	37.8389	0.108821	1	11	0.0216139	0.000125266	0.00578729	0.000310805	0.00579563	3.0741	108.821	2026.29	2029.21	-86.9259	0.0000000E+000	0.0000000E+000	0.0000000E+000	86.9259	0.0000000E+000	0.0000000E+000	0.0000000E+000	-86.9259	0.0000000E+000	0.0000000E+000	0.0000000E+000	-3.0741	0.0000000E+000	0.0000000E+000	0.0000000E+000	3.0741	18.6203	86.9259
340.109	173.701	10.6504	174.027	-3.50869	09/05/2018 13:41:00.1077	-0.00127079	0.00217278	43.9375	0.164564	1	11	0.021613	0.000124193	0.00573546	0.000351669	0.00574623	3.50869	164.564	2683.93	2688.97	-86.4913	0.0000000E+000	0.0000000E+000	0.0000000E+000	86.4913	0.0000000E+000	0.0000000E+000	0.0000000E+000	-86.4913	0.0000000E+000	0.0000000E+000	0.0000000E+000	-3.50869	0.0000000E+000	0.0000000E+000	0.0000000E+000	3.50869	16.3093	86.4913
254.43	175.337	12.2119	175.762	-3.9841	09/05/2018 13:41:01.7972	-0.00127066	0.00216775	51.2235	0.247278	1	11	0.0216145	0.000122976	0.00567576	0.000395306	0.00568951	3.9841	247.277	3550.39	3558.99	-86.0159	0.0000000E+000	0.0000000E+000	0.0000000E+000	86.0159	0.0000000E+000	0.0000000E+000	0.0000000E+000	-86.0159	0.0000000E+000	0.0000000E+000	0.0000000E+000	-3.9841	0.0000000E+000	0.0000000E+000	0.0000000E+000	3.9841	14.3579	86.0159
190.549	177.283	14.0617	177.839	-4.53508	09/05/2018 13:41:03.4792	-0.00127161	0.00219066	59.3987	0.37136	1	11	0.0216133	0.000121533	0.00560544	0.000444612	0.00562305	4.53508	371.36	4681.92	4696.63	-85.4649	0.0000000E+000	0.0000000E+000	0.0000000E+000	85.4649	0.0000000E+000	0.0000000E+000	0.0000000E+000	-85.4649	0.0000000E+000	0.0000000E+000	0.0000000E+000	-4.53508	0.0000000E+000	0.0000000E+000	0.0000000E+000	4.53508	12.6075	85.4649
142.492	179.46	16.2198	180.191	-5.16442	09/05/2018 13:41:05.1933	-0.00126787	0.00211262	68.8628	0.557964	1	11	0.021611	0.000119934	0.00552713	0.000499548	0.00554966	5.16442	557.964	6173.46	6198.63	-84.8356	0.0000000E+000	0.0000000E+000	0.0000000E+000	84.8356	0.0000000E+000	0.0000000E+000	0.0000000E+000	-84.8356	0.0000000E+000	0.0000000E+000	0.0000000E+000	-5.16442	0.0000000E+000	0.0000000E+000	0.0000000E+000	5.16442	11.0643	84.8356
106.673	181.936	18.7354	182.898	-5.87949	09/05/2018 13:41:06.8546	-0.00127707	0.00209027	79.6349	0.835627	1	11	0.021607	0.000118137	0.00543876	0.000560074	0.00546752	5.87949	835.626	8114.6	8157.51	-84.1205	0.0000000E+000	0.0000000E+000	0.0000000E+000	84.1205	0.0000000E+000	0.0000000E+000	0.0000000E+000	-84.1205	0.0000000E+000	0.0000000E+000	0.0000000E+000	-5.87949	0.0000000E+000	0.0000000E+000	0.0000000E+000	5.87949	9.7108	84.1205
79.8212	184.946	21.5648	186.199	-6.65069	09/05/2018 13:41:08.5462	-0.00127044	0.00211784	92.4605	1.2402	1	11	0.02161	0.000116059	0.00533446	0.000622001	0.0053706	6.65069	1240.2	10636.3	10708.4	-83.3493	0.0000000E+000	0.0000000E+000	0.0000000E+000	83.3493	0.0000000E+000	0.0000000E+000	0.0000000E+000	-83.3493	0.0000000E+000	0.0000000E+000	0.0000000E+000	-6.65069	0.0000000E+000	0.0000000E+000	0.0000000E+000	6.65069	8.57629	83.3493
59.7895	188.329	24.9136	189.97	-7.53576	09/05/2018 13:41:10.2394	-0.00127061	0.00210517	106.846	1.83764	1	11	0.021611	0.00011376	0.00521852	0.000690345	0.00526398	7.53576	1837.64	13891.3	14012.3	-82.4642	0.0000000E+000	0.0000000E+000	0.0000000E+000	82.4642	0.0000000E+000	0.0000000E+000	0.0000000E+000	-82.4642	0.0000000E+000	0.0000000E+000	0.0000000E+000	-7.53576	0.0000000E+000	0.0000000E+000	0.0000000E+000	7.53576	7.55929	82.4642
44.728	192.281	28.7181	194.414	-8.49461	09/05/2018 13:41:12.1840	-0.00127554	0.000182913	123.904	2.70359	1	12	0.0216238	0.000111225	0.00508723	0.000759802	0.00514366	8.49461	2703.59	18101.8	18302.6	-81.5054	0.0000000E+000	0.0000000E+000	0.0000000E+000	81.5054	0.0000000E+000	0.0000000E+000	0.0000000E+000	-81.5054	0.0000000E+000	0.0000000E+000	0.0000000E+000	-8.49461	0.0000000E+000	0.0000000E+000	0.0000000E+000	8.49461	6.69547	81.5054
33.4276	196.891	33.1273	199.658	-9.55069	09/05/2018 13:41:13.9452	-0.00127183	0.000144149	143.724	3.95665	1	12	0.0216222	0.000108296	0.00493914	0.000831022	0.00500857	9.55069	3956.65	23516.2	23846.7	-80.4493	0.0000000E+000	0.0000000E+000	0.0000000E+000	80.4493	0.0000000E+000	0.0000000E+000	0.0000000E+000	-80.4493	0.0000000E+000	0.0000000E+000	0.0000000E+000	-9.55069	0.0000000E+000	0.0000000E+000	0.0000000E+000	9.55069	5.94346	80.4493
25.0401	202.159	38.119	205.721	-10.6783	09/05/2018 13:41:15.6304	-0.00127683	0.000193232	166.741	5.72489	1	12	0.021619	0.000105089	0.00477677	0.000900704	0.00486094	10.6783	5724.89	30361.2	30896.2	-79.3217	0.0000000E+000	0.0000000E+000	0.0000000E+000	79.3217	0.0000000E+000	0.0000000E+000	0.0000000E+000	-79.3217	0.0000000E+000	0.0000000E+000	0.0000000E+000	-10.6783	0.0000000E+000	0.0000000E+000	0.0000000E+000	10.6783	5.30337	79.3217
18.735	208.218	43.8905	212.793	-11.9032	09/05/2018 13:41:17.4243	-0.00127802	0.000168318	193.551	8.23419	1	12	0.0216149	0.000101577	0.00459835	0.000969292	0.00469939	11.9032	8234.18	39063.2	39921.6	-78.0968	0.0000000E+000	0.0000000E+000	0.0000000E+000	78.0968	0.0000000E+000	0.0000000E+000	0.0000000E+000	-78.0968	0.0000000E+000	0.0000000E+000	0.0000000E+000	-11.9032	0.0000000E+000	0.0000000E+000	0.0000000E+000	11.9032	4.74403	78.0968
14.0176	215.249	50.461	221.085	-13.1936	09/05/2018 13:41:19.2238	-0.00127907	0.000197824	225.004	11.7215	1	12	0.0216139	9.77627e-05	0.00440375	0.00103237	0.00452315	13.1936	11721.5	49999.8	51355.4	-76.8064	0.0000000E+000	0.0000000E+000	0.0000000E+000	76.8064	0.0000000E+000	0.0000000E+000	0.0000000E+000	-76.8064	0.0000000E+000	0.0000000E+000	0.0000000E+000	-13.1936	0.0000000E+000	0.0000000E+000	0.0000000E+000	13.1936	4.26566	76.8064
10.5007	223.36	57.9386	230.752	-14.5418	09/05/2018 13:41:20.8362	-0.00127666	0.000171307	261.598	16.4922	1	12	0.0216169	9.36802e-05	0.00419482	0.00108812	0.00433365	14.5418	16492.2	63579.4	65683.6	-75.4582	0.0000000E+000	0.0000000E+000	0.0000000E+000	75.4582	0.0000000E+000	0.0000000E+000	0.0000000E+000	-75.4582	0.0000000E+000	0.0000000E+000	0.0000000E+000	-14.5418	0.0000000E+000	0.0000000E+000	0.0000000E+000	14.5418	3.85511	75.4582
7.85965	232.562	66.5559	241.898	-15.9704	09/05/2018 13:41:22.9572	-0.00127229	0.000202229	304.25	23.0324	1	12	0.0216125	8.93457e-05	0.00397442	0.00113742	0.00413397	15.9704	23032.4	80480.4	83711.3	-74.0296	0.0000000E+000	0.0000000E+000	0.0000000E+000	74.0296	0.0000000E+000	0.0000000E+000	0.0000000E+000	-74.0296	0.0000000E+000	0.0000000E+000	0.0000000E+000	-15.9704	0.0000000E+000	0.0000000E+000	0.0000000E+000	15.9704	3.49423	74.0296
5.88291	243.208	76.3745	254.918	-17.4338	09/05/2018 13:41:24.4077	-0.00127804	0.000190326	354.225	31.7961	1	12	0.0216132	8.4785e-05	0.00374262	0.00117529	0.00392282	17.4338	31796.1	101252	106127	-72.5662	0.0000000E+000	0.0000000E+000	0.0000000E+000	72.5662	0.0000000E+000	0.0000000E+000	0.0000000E+000	-72.5662	0.0000000E+000	0.0000000E+000	0.0000000E+000	-17.4338	0.0000000E+000	0.0000000E+000	0.0000000E+000	17.4338	3.18442	72.5662
4.39893	255.363	87.6845	269.998	-18.951	09/05/2018 13:41:26.3141	-0.00127466	0.000161854	412.62	43.5185	1	12	0.0216115	8.0043e-05	0.00350297	0.00120282	0.00370373	18.951	43518.5	126739	134002	-71.049	0.0000000E+000	0.0000000E+000	0.0000000E+000	71.049	0.0000000E+000	0.0000000E+000	0.0000000E+000	-71.049	0.0000000E+000	0.0000000E+000	0.0000000E+000	-18.951	0.0000000E+000	0.0000000E+000	0.0000000E+000	18.951	2.9123	71.049
3.29363	269.318	100.601	287.494	-20.4826	09/05/2018 13:41:28.8244	-0.00127467	0.000227143	480.335	58.8151	1	12	0.0216116	7.51724e-05	0.00325843	0.00121715	0.00347834	20.4826	58815.1	157454	168080	-69.5174	0.0000000E+000	0.0000000E+000	0.0000000E+000	69.5174	0.0000000E+000	0.0000000E+000	0.0000000E+000	-69.5174	0.0000000E+000	0.0000000E+000	0.0000000E+000	-20.4826	0.0000000E+000	0.0000000E+000	0.0000000E+000	20.4826	2.6771	69.5174
2.46607	285.165	115.378	307.621	-22.0283	09/05/2018 13:41:32.1454	-0.00129883	0.000162336	559.363	78.6872	1	12	0.0216111	7.02524e-05	0.00301344	0.00121924	0.00325075	22.0283	78687.3	194481	209797	-67.9717	0.0000000E+000	0.0000000E+000	0.0000000E+000	67.9717	0.0000000E+000	0.0000000E+000	0.0000000E+000	-67.9717	0.0000000E+000	0.0000000E+000	0.0000000E+000	-22.0283	0.0000000E+000	0.0000000E+000	0.0000000E+000	22.0283	2.47158	67.9717
1.84257	303.578	132.784	331.347	-23.6244	09/05/2018 13:41:36.5617	-0.00129558	0.000183468	650.506	104.466	1	12	0.0216105	6.522e-05	0.00276505	0.00120942	0.00301798	23.6244	104466	238836	260683	-66.3756	0.0000000E+000	0.0000000E+000	0.0000000E+000	66.3756	0.0000000E+000	0.0000000E+000	0.0000000E+000	-66.3756	0.0000000E+000	0.0000000E+000	0.0000000E+000	-23.6244	0.0000000E+000	0.0000000E+000	0.0000000E+000	23.6244	2.28625	66.3756
1.38128	324.545	152.498	358.587	-25.168	09/05/2018 13:41:42.4271	-0.00129832	0.000208611	755.572	136.651	1	12	0.0216093	6.02624e-05	0.00252397	0.00118597	0.00278872	25.168	136651	290820	321325	-64.832	0.0000000E+000	0.0000000E+000	0.0000000E+000	64.832	0.0000000E+000	0.0000000E+000	0.0000000E+000	-64.832	0.0000000E+000	0.0000000E+000	0.0000000E+000	-25.168	0.0000000E+000	0.0000000E+000	0.0000000E+000	25.168	2.12819	64.832
1.0334	349.012	174.714	390.3	-26.5924	09/05/2018 13:41:50.2428	-0.00126555	0.000238123	881.504	176.637	1	12	0.0216106	5.53691e-05	0.00229109	0.00114691	0.00256213	26.5924	176637	352854	394596	-63.4076	0.0000000E+000	0.0000000E+000	0.0000000E+000	63.4076	0.0000000E+000	0.0000000E+000	0.0000000E+000	-63.4076	0.0000000E+000	0.0000000E+000	0.0000000E+000	-26.5924	0.0000000E+000	0.0000000E+000	0.0000000E+000	26.5924	1.99762	63.4076
0.773208	376.658	198.944	425.97	-27.8423	09/05/2018 13:42:00.6647	-0.00126541	0.000216	1034.65	225.682	1	12	0.0216102	5.07318e-05	0.00207582	0.00109641	0.00234758	27.8423	225682	427281	483220	-62.1577	0.0000000E+000	0.0000000E+000	0.0000000E+000	62.1577	0.0000000E+000	0.0000000E+000	0.0000000E+000	-62.1577	0.0000000E+000	0.0000000E+000	0.0000000E+000	-27.8423	0.0000000E+000	0.0000000E+000	0.0000000E+000	27.8423	1.89328	62.1577
0.578532	405.821	224.989	464.016	-29.0042	09/05/2018 13:42:16.3401	-0.00126358	6.10847e-05	1222.73	287.467	1	13	0.0216166	4.6586e-05	0.00188482	0.00104495	0.0021551	29.0042	287467	518515	592870	-60.9958	0.0000000E+000	0.0000000E+000	0.0000000E+000	60.9958	0.0000000E+000	0.0000000E+000	0.0000000E+000	-60.9958	0.0000000E+000	0.0000000E+000	0.0000000E+000	-29.0042	0.0000000E+000	0.0000000E+000	0.0000000E+000	29.0042	1.80374	60.9958
0.433065	434.117	255.052	503.497	-30.435	09/05/2018 13:42:34.8892	-0.00126358	9.80059e-05	1440.91	369.744	1	13	0.0216111	4.29219e-05	0.00171243	0.00100609	0.00198611	30.435	369744	629332	729911	-59.565	0.0000000E+000	0.0000000E+000	0.0000000E+000	59.565	0.0000000E+000	0.0000000E+000	0.0000000E+000	-59.565	0.0000000E+000	0.0000000E+000	0.0000000E+000	-30.435	0.0000000E+000	0.0000000E+000	0.0000000E+000	30.435	1.70207	59.565
0.323901	459.142	293.645	545.013	-32.601	09/05/2018 13:42:59.6672	-0.00126287	5.91926e-05	1673.34	485.755	1	13	0.02161	3.96504e-05	0.00154573	0.000988575	0.00183482	32.601	485755	759524	901573	-57.399	0.0000000E+000	0.0000000E+000	0.0000000E+000	57.399	0.0000000E+000	0.0000000E+000	0.0000000E+000	-57.399	0.0000000E+000	0.0000000E+000	0.0000000E+000	-32.601	0.0000000E+000	0.0000000E+000	0.0000000E+000	32.601	1.5636	57.399
0.242323	480.402	346.193	592.145	-35.7778	09/05/2018 13:43:32.7648	-0.00127429	7.8625e-05	1897.17	648.467	1	13	0.0216104	3.64952e-05	0.00137009	0.000987331	0.00168878	35.7778	648467	899857	1.10917e+06	-54.2222	0.0000000E+000	0.0000000E+000	0.0000000E+000	54.2222	0.0000000E+000	0.0000000E+000	0.0000000E+000	-54.2222	0.0000000E+000	0.0000000E+000	0.0000000E+000	-35.7778	0.0000000E+000	0.0000000E+000	0.0000000E+000	35.7778	1.38767	54.2222
0.181534	498.147	419.589	651.311	-40.1074	09/05/2018 13:44:16.9263	-0.00129323	6.10904e-05	2089.48	867.181	1	13	0.0216124	3.31829e-05	0.00117431	0.000989117	0.00153537	40.1074	867181	1.02954e+06	1.34609e+06	-49.8926	0.0000000E+000	0.0000000E+000	0.0000000E+000	49.8926	0.0000000E+000	0.0000000E+000	0.0000000E+000	-49.8926	0.0000000E+000	0.0000000E+000	0.0000000E+000	-40.1074	0.0000000E+000	0.0000000E+000	0.0000000E+000	40.1074	1.18723	49.8926
0.135846	513.725	522.166	732.509	-45.4669	09/05/2018 13:45:15.9194	-0.00126431	5.72769e-05	2243.7	1140.13	1	13	0.0216095	2.95006e-05	0.000957424	0.000973154	0.00136517	45.4669	1.14013e+06	1.1217e+06	1.59941e+06	-44.5331	0.0000000E+000	0.0000000E+000	0.0000000E+000	44.5331	0.0000000E+000	0.0000000E+000	0.0000000E+000	-44.5331	0.0000000E+000	0.0000000E+000	0.0000000E+000	-45.4669	0.0000000E+000	0.0000000E+000	0.0000000E+000	45.4669	0.983835	44.5331
0.101725	528.865	663.092	848.168	-51.425	09/05/2018 13:46:34.6790	-0.00126133	5.44995e-05	2359.49	1442.12	1	13	0.0216106	2.54791e-05	0.000735159	0.000921743	0.00117901	51.425	1.44212e+06	1.1502e+06	1.84463e+06	-38.575	0.0000000E+000	0.0000000E+000	0.0000000E+000	38.575	0.0000000E+000	0.0000000E+000	0.0000000E+000	-38.575	0.0000000E+000	0.0000000E+000	0.0000000E+000	-51.425	0.0000000E+000	0.0000000E+000	0.0000000E+000	51.425	0.797575	38.575
0.0761037	545.081	854.891	1013.88	-57.4783	09/05/2018 13:48:19.9337	-0.00126299	5.35092e-05	2446.27	1739.21	1	13	0.0216095	2.13137e-05	0.000530259	0.000831645	0.00098631	57.4783	1.73921e+06	1.10893e+06	2.06266e+06	-32.5217	0.0000000E+000	0.0000000E+000	0.0000000E+000	32.5217	0.0000000E+000	0.0000000E+000	0.0000000E+000	-32.5217	0.0000000E+000	0.0000000E+000	0.0000000E+000	-57.4783	0.0000000E+000	0.0000000E+000	0.0000000E+000	57.4783	0.637602	32.5217
0.0569665	563.899	1112.14	1246.93	-63.1132	09/05/2018 13:50:40.5269	-0.00127628	5.60259e-05	2512.12	1998.37	1	13	0.0216004	1.73228e-05	0.000362673	0.000715277	0.000801968	63.1132	1.99837e+06	1.01325e+06	2.24057e+06	-26.8868	0.0000000E+000	0.0000000E+000	0.0000000E+000	26.8868	0.0000000E+000	0.0000000E+000	0.0000000E+000	-26.8868	0.0000000E+000	0.0000000E+000	0.0000000E+000	-63.1132	0.0000000E+000	0.0000000E+000	0.0000000E+000	63.1132	0.507039	26.8868
0.0426446	587.618	1456.81	1570.85	-68.0328	09/05/2018 13:53:48.3167	-0.00129421	6.1066e-05	2561.85	2203.36	1	13	0.0216079	1.37555e-05	0.000238135	0.000590378	0.000636596	68.0328	2.20336e+06	888749	2.37585e+06	-21.9672	0.0000000E+000	0.0000000E+000	0.0000000E+000	21.9672	0.0000000E+000	0.0000000E+000	0.0000000E+000	-21.9672	0.0000000E+000	0.0000000E+000	0.0000000E+000	-68.0328	0.0000000E+000	0.0000000E+000	0.0000000E+000	68.0328	0.40336	21.9672
0.0319138	616.816	1913.76	2010.7	-72.1355	09/05/2018 13:57:59.2290	-0.00126827	4.68138e-05	2605.89	2360.66	1	13	0.0216081	1.07465e-05	0.000152567	0.00047336	0.000497339	72.1355	2.36066e+06	760855	2.48024e+06	-17.8645	0.0000000E+000	0.0000000E+000	0.0000000E+000	17.8645	0.0000000E+000	0.0000000E+000	0.0000000E+000	-17.8645	0.0000000E+000	0.0000000E+000	0.0000000E+000	-72.1355	0.0000000E+000	0.0000000E+000	0.0000000E+000	72.1355	0.322306	17.8645
0.0238768	655.354	2521.43	2605.21	-75.4304	09/05/2018 14:03:34.5780	-0.00126877	5.45076e-05	2643.61	2476.32	1	13	0.0216129	8.29606e-06	9.65588e-05	0.000371503	0.000383847	75.4304	2.47632e+06	643629	2.55859e+06	-14.5696	0.0000000E+000	0.0000000E+000	0.0000000E+000	14.5696	0.0000000E+000	0.0000000E+000	0.0000000E+000	-14.5696	0.0000000E+000	0.0000000E+000	0.0000000E+000	-75.4304	0.0000000E+000	0.0000000E+000	0.0000000E+000	75.4304	0.259914	14.5696
0.0178412	709.236	3331.87	3406.52	-77.9831	09/05/2018 14:11:03.3556	-0.00129624	5.82753e-05	2677.38	2561.32	1	13	0.0216083	6.34323e-06	6.11181e-05	0.000287122	0.000293555	77.9831	2.56132e+06	545214	2.61871e+06	-12.0169	0.0000000E+000	0.0000000E+000	0.0000000E+000	12.0169	0.0000000E+000	0.0000000E+000	0.0000000E+000	-12.0169	0.0000000E+000	0.0000000E+000	0.0000000E+000	-77.9831	0.0000000E+000	0.0000000E+000	0.0000000E+000	77.9831	0.212865	12.0169
0.0133776	777.095	4388.33	4456.6	-79.958	09/05/2018 14:22:16.7383	-0.00128544	6.23198e-06	2711.09	2628.66	1	14	0.021609	4.84875e-06	3.91261e-05	0.000220949	0.000224386	79.958	2.62866e+06	465489	2.66956e+06	-10.042	0.0000000E+000	0.0000000E+000	0.0000000E+000	10.042	0.0000000E+000	0.0000000E+000	0.0000000E+000	-10.042	0.0000000E+000	0.0000000E+000	0.0000000E+000	-79.958	0.0000000E+000	0.0000000E+000	0.0000000E+000	79.958	0.177082	10.042
0.0100058	871.456	5797	5862.14	-81.4508	09/05/2018 14:35:36.9003	-0.00127839	4.42499e-06	2743.89	2683.25	1	14	0.0216111	3.68655e-06	2.5359e-05	0.000168691	0.000170586	81.4508	2.68325e+06	403369	2.7134e+06	-8.54918	0.0000000E+000	0.0000000E+000	0.0000000E+000	8.54918	0.0000000E+000	0.0000000E+000	0.0000000E+000	-8.54918	0.0000000E+000	0.0000000E+000	0.0000000E+000	-81.4508	0.0000000E+000	0.0000000E+000	0.0000000E+000	81.4508	0.150329	8.54918