File: exp data/EIS mpt files/two combined/RM_stacked second run DS_12+3_2_C08.mpt
EC-Lab ASCII FILE
Nb header lines : 66

Potentio Electrochemical Impedance Spectroscopy

Run on channel : 8 (SN 13213)
User :
CE vs. WE compliance from -10 V to 10 V
Electrode connection : standard
Potential control : Ewe
Ewe ctrl range : min = -1.00 V, max = 1.00 V
Safety Limits :
	Do not start on E overload
Acquisition started on : 09/05/2018 15:24:09.000
Loaded Setting File : NONE
Saved on :
	File : RM_stacked second run DS_12+3_2_C08.mpr
	Directory : D:\Robert\Stacked cells\Second run 3% and 12% PVDF electrodes 12%compressed\
	Host : 10.5.5.6
Device : VMP3 (SN 0628)
Address : 10.5.5.5
EC-Lab for windows v11.17 (software)
Internet server v11.16 (firmware)
Command interpretor v11.16 (firmware)
Electrode material :
Initial state :
Electrolyte :
Comments :
Electrode surface area : 0.001 cm²
Characteristic mass : 0.001 g
Equivalent Weight : 0.000 g/eq.
Density : 0.000 g/cm3
Volume (V) : 0.000 m³
Text export
   Mode : Standard
   Time format : Elapsed
Cycle Definition : Charge/Discharge alternance
Mode                Single sine
E (V)               0.0000
vs.                 Eoc
tE (h:m:s)          0:00:3.0000
record              1
dI                  0.000
unit dI             mA
dt (s)              60.000
fi                  200.000
unit fi             kHz
ff                  8.000
unit ff             mHz
Nd                  8
Points              per decade
spacing             Logarithmic
Va (mV)             20.0
pw                  3.00
Na                  5
corr                0
E range min (V)     -1.000
E range max (V)     1.000
I Range             Auto
Bandwidth           5
nc cycles           0
goto Ns'            0
nr cycles           0
inc. cycle          0

freq/Hz	Re(Z)/Ohm	-Im(Z)/Ohm	|Z|/Ohm	Phase(Z)/deg	time/s	<Ewe>/V	<I>/mA	Cs/µF	Cp/µF	cycle number	I Range	|Ewe|/V	|I|/A	Re(Y)/Ohm-1	Im(Y)/Ohm-1	|Y|/Ohm-1	Phase(Y)/deg	Re(C)/nF	Im(C)/nF	|C|/nF	Phase(C)/deg	Re(M)	Im(M)	|M|	Phase(M)/deg	Re(Permittivity)	Im(Permittivity)	|Permittivity|	Phase(Permittivity)/deg	Re(Resistivity)/Ohm.cm	Im(Resistivity)/Ohm.cm	|Resistivity|/Ohm.cm	Phase(Resistivity)/deg	Re(Conductivity)/mS/cm	Im(Conductivity)/mS/cm	|Conductivity|/mS/cm	Phase(Conductivity)/deg	Tan(Delta)	Loss Angle(Delta)/deg
200019	168.612	2.89793	168.637	-0.984644	09/05/2018 15:24:14.3321	-0.00925336	0.00369966	0.274574	8.1083e-05	1	11	0.0182584	0.00010827	0.00592902	0.000101902	0.00592989	0.984644	0.0810828	4.7177	4.7184	-89.0154	0.0000000E+000	0.0000000E+000	0.0000000E+000	89.0154	0.0000000E+000	0.0000000E+000	0.0000000E+000	-89.0154	0.0000000E+000	0.0000000E+000	0.0000000E+000	-0.984644	0.0000000E+000	0.0000000E+000	0.0000000E+000	0.984644	58.1836	89.0154
149844	168.196	2.95306	168.222	-1.00585	09/05/2018 15:24:15.3961	-0.00939602	0.00293333	0.359674	0.000110837	1	11	0.0205313	0.000122049	0.00594359	0.000104353	0.00594451	1.00585	0.110838	6.31293	6.3139	-88.9941	0.0000000E+000	0.0000000E+000	0.0000000E+000	88.9941	0.0000000E+000	0.0000000E+000	0.0000000E+000	-88.9941	0.0000000E+000	0.0000000E+000	0.0000000E+000	-1.00585	0.0000000E+000	0.0000000E+000	0.0000000E+000	1.00585	56.9566	88.9941
112266	168.065	3.1869	168.095	-1.08633	09/05/2018 15:24:16.4601	-0.00936407	0.00300176	0.444841	0.000159894	1	11	0.0207642	0.000123526	0.00594794	0.000112787	0.00594901	1.08633	0.159894	8.43218	8.4337	-88.9137	0.0000000E+000	0.0000000E+000	0.0000000E+000	88.9137	0.0000000E+000	0.0000000E+000	0.0000000E+000	-88.9137	0.0000000E+000	0.0000000E+000	0.0000000E+000	-1.08633	0.0000000E+000	0.0000000E+000	0.0000000E+000	1.08633	52.7362	88.9137
84111.3	168.276	3.43247	168.311	-1.16855	09/05/2018 15:24:17.5241	-0.00934216	0.0029365	0.551263	0.000229271	1	11	0.0206928	0.000122944	0.00594016	0.000121167	0.00594139	1.16855	0.229272	11.2399	11.2423	-88.8314	0.0000000E+000	0.0000000E+000	0.0000000E+000	88.8314	0.0000000E+000	0.0000000E+000	0.0000000E+000	-88.8314	0.0000000E+000	0.0000000E+000	0.0000000E+000	-1.16855	0.0000000E+000	0.0000000E+000	0.0000000E+000	1.16855	49.0246	88.8314
63017.6	168.706	3.90024	168.751	-1.32436	09/05/2018 15:24:18.5891	-0.0093589	0.00292214	0.647541	0.000345905	1	11	0.0205793	0.000121951	0.0059243	0.000136961	0.00592589	1.32436	0.345904	14.9622	14.9662	-88.6756	0.0000000E+000	0.0000000E+000	0.0000000E+000	88.6756	0.0000000E+000	0.0000000E+000	0.0000000E+000	-88.6756	0.0000000E+000	0.0000000E+000	0.0000000E+000	-1.32436	0.0000000E+000	0.0000000E+000	0.0000000E+000	1.32436	43.2553	88.6756
47216.8	169.302	4.32787	169.357	-1.46434	09/05/2018 15:24:19.6541	-0.00934667	0.00290872	0.778843	0.000508618	1	11	0.0204956	0.00012102	0.00590276	0.000150893	0.00590469	1.46434	0.508617	19.8966	19.9031	-88.5357	0.0000000E+000	0.0000000E+000	0.0000000E+000	88.5357	0.0000000E+000	0.0000000E+000	0.0000000E+000	-88.5357	0.0000000E+000	0.0000000E+000	0.0000000E+000	-1.46434	0.0000000E+000	0.0000000E+000	0.0000000E+000	1.46434	39.119	88.5357
35371.1	170.146	4.84551	170.215	-1.63126	09/05/2018 15:24:20.7181	-0.00934074	0.00298181	0.928607	0.000752513	1	11	0.0204051	0.000119878	0.00587253	0.000167241	0.00587491	1.63126	0.752513	26.4239	26.4346	-88.3687	0.0000000E+000	0.0000000E+000	0.0000000E+000	88.3687	0.0000000E+000	0.0000000E+000	0.0000000E+000	-88.3687	0.0000000E+000	0.0000000E+000	0.0000000E+000	-1.63126	0.0000000E+000	0.0000000E+000	0.0000000E+000	1.63126	35.1142	88.3687
26503.9	171.205	5.17697	171.283	-1.73201	09/05/2018 15:24:21.7831	-0.00933587	0.00293575	1.15994	0.00105964	1	11	0.0202254	0.000118082	0.00583562	0.00017646	0.00583829	1.73201	1.05964	35.0427	35.0587	-88.268	0.0000000E+000	0.0000000E+000	0.0000000E+000	88.268	0.0000000E+000	0.0000000E+000	0.0000000E+000	-88.268	0.0000000E+000	0.0000000E+000	0.0000000E+000	-1.73201	0.0000000E+000	0.0000000E+000	0.0000000E+000	1.73201	33.0705	88.268
19853.5	172.325	5.39535	172.41	-1.79329	09/05/2018 15:24:22.7211	-0.00934792	0.0029227	1.48581	0.00145505	1	11	0.0217607	0.000126215	0.00579729	0.000181508	0.00580013	1.79329	1.45505	46.4738	46.4966	-88.2067	0.0000000E+000	0.0000000E+000	0.0000000E+000	88.2067	0.0000000E+000	0.0000000E+000	0.0000000E+000	-88.2067	0.0000000E+000	0.0000000E+000	0.0000000E+000	-1.79329	0.0000000E+000	0.0000000E+000	0.0000000E+000	1.79329	31.9396	88.2067
14873	173.479	5.40332	173.563	-1.78401	09/05/2018 15:24:23.7851	-0.00934788	0.00291673	1.98043	0.00191941	1	11	0.0202837	0.000116867	0.00575881	0.000179369	0.0057616	1.78401	1.91941	61.6245	61.6543	-88.216	0.0000000E+000	0.0000000E+000	0.0000000E+000	88.216	0.0000000E+000	0.0000000E+000	0.0000000E+000	-88.216	0.0000000E+000	0.0000000E+000	0.0000000E+000	-1.78401	0.0000000E+000	0.0000000E+000	0.0000000E+000	1.78401	32.1059	88.216
11142.6	174.591	5.29211	174.672	-1.73618	09/05/2018 15:24:24.7241	-0.00934087	0.0029723	2.69902	0.00247753	1	11	0.0208435	0.00011933	0.0057224	0.000173454	0.00572503	1.73618	2.47753	81.736	81.7735	-88.2638	0.0000000E+000	0.0000000E+000	0.0000000E+000	88.2638	0.0000000E+000	0.0000000E+000	0.0000000E+000	-88.2638	0.0000000E+000	0.0000000E+000	0.0000000E+000	-1.73618	0.0000000E+000	0.0000000E+000	0.0000000E+000	1.73618	32.9909	88.2638
8412.83	175.489	5.12208	175.564	-1.67184	09/05/2018 15:24:25.8043	-0.00933076	0.00298833	3.69345	0.00314378	1	11	0.021165	0.000120554	0.0056935	0.000166178	0.00569592	1.67184	3.14378	107.71	107.756	-88.3282	0.0000000E+000	0.0000000E+000	0.0000000E+000	88.3282	0.0000000E+000	0.0000000E+000	0.0000000E+000	-88.3282	0.0000000E+000	0.0000000E+000	0.0000000E+000	-1.67184	0.0000000E+000	0.0000000E+000	0.0000000E+000	1.67184	34.2614	88.3282
6295.45	176.183	5.183	176.259	-1.68506	09/05/2018 15:24:27.2025	-0.00933665	0.00278379	4.87767	0.00421765	1	11	0.0213513	0.000121136	0.00567101	0.000166831	0.00567346	1.68506	4.21766	143.369	143.431	-88.3149	0.0000000E+000	0.0000000E+000	0.0000000E+000	88.3149	0.0000000E+000	0.0000000E+000	0.0000000E+000	-88.3149	0.0000000E+000	0.0000000E+000	0.0000000E+000	-1.68506	0.0000000E+000	0.0000000E+000	0.0000000E+000	1.68506	33.9925	88.3149
4685.5	177.091	5.04944	177.163	-1.63325	09/05/2018 15:24:28.8920	-0.00933807	0.00281381	6.72699	0.00546463	1	11	0.0214671	0.000121171	0.00564222	0.000160878	0.00564452	1.63325	5.46464	191.652	191.73	-88.3668	0.0000000E+000	0.0000000E+000	0.0000000E+000	88.3668	0.0000000E+000	0.0000000E+000	0.0000000E+000	-88.3668	0.0000000E+000	0.0000000E+000	0.0000000E+000	-1.63325	0.0000000E+000	0.0000000E+000	0.0000000E+000	1.63325	35.0714	88.3668
3511.12	177.879	5.14866	177.953	-1.65795	09/05/2018 15:24:30.5797	-0.0093341	0.00281307	8.804	0.00736982	1	11	0.0215284	0.000120978	0.0056171	0.000162586	0.00561946	1.65795	7.36982	254.616	254.723	-88.342	0.0000000E+000	0.0000000E+000	0.0000000E+000	88.342	0.0000000E+000	0.0000000E+000	0.0000000E+000	-88.342	0.0000000E+000	0.0000000E+000	0.0000000E+000	-1.65795	0.0000000E+000	0.0000000E+000	0.0000000E+000	1.65795	34.5486	88.342
2630.84	178.612	5.36739	178.693	-1.72125	09/05/2018 15:24:32.2677	-0.00933246	0.00281139	11.271	0.0101689	1	11	0.0215611	0.00012066	0.00559367	0.000168093	0.00559619	1.72125	10.1689	338.394	338.547	-88.2787	0.0000000E+000	0.0000000E+000	0.0000000E+000	88.2787	0.0000000E+000	0.0000000E+000	0.0000000E+000	-88.2787	0.0000000E+000	0.0000000E+000	0.0000000E+000	-1.72125	0.0000000E+000	0.0000000E+000	0.0000000E+000	1.72125	33.2773	88.2787
1970.63	179.448	5.76596	179.541	-1.84037	09/05/2018 15:24:33.9557	-0.00933643	0.00279517	14.0069	0.0144464	1	11	0.0215795	0.000120193	0.00556689	0.000178873	0.00556977	1.84037	14.4465	449.602	449.834	-88.1596	0.0000000E+000	0.0000000E+000	0.0000000E+000	88.1596	0.0000000E+000	0.0000000E+000	0.0000000E+000	-88.1596	0.0000000E+000	0.0000000E+000	0.0000000E+000	-1.84037	0.0000000E+000	0.0000000E+000	0.0000000E+000	1.84037	31.122	88.1596
1477.36	180.286	6.23475	180.394	-1.98065	09/05/2018 15:24:35.6404	-0.00932985	0.00280747	17.2788	0.02064	1	11	0.0215904	0.000119685	0.00554013	0.000191592	0.00554344	1.98065	20.64	596.832	597.189	-88.0194	0.0000000E+000	0.0000000E+000	0.0000000E+000	88.0194	0.0000000E+000	0.0000000E+000	0.0000000E+000	-88.0194	0.0000000E+000	0.0000000E+000	0.0000000E+000	-1.98065	0.0000000E+000	0.0000000E+000	0.0000000E+000	1.98065	28.9163	88.0194
1106.77	181.192	6.88667	181.323	-2.17663	09/05/2018 15:24:37.3264	-0.00933216	0.00280803	20.8811	0.0301209	1	11	0.0215943	0.000119093	0.00551105	0.000209462	0.00551503	2.17663	30.1209	792.495	793.067	-87.8234	0.0000000E+000	0.0000000E+000	0.0000000E+000	87.8234	0.0000000E+000	0.0000000E+000	0.0000000E+000	-87.8234	0.0000000E+000	0.0000000E+000	0.0000000E+000	-2.17663	0.0000000E+000	0.0000000E+000	0.0000000E+000	2.17663	26.3105	87.8234
829.203	182.214	7.69268	182.377	-2.41746	09/05/2018 15:24:39.0149	-0.00933934	0.00277484	24.9506	0.0443913	1	11	0.0215963	0.000118416	0.00547827	0.00023128	0.00548315	2.41746	44.3913	1051.48	1052.42	-87.5825	0.0000000E+000	0.0000000E+000	0.0000000E+000	87.5825	0.0000000E+000	0.0000000E+000	0.0000000E+000	-87.5825	0.0000000E+000	0.0000000E+000	0.0000000E+000	-2.41746	0.0000000E+000	0.0000000E+000	0.0000000E+000	2.41746	23.6867	87.5825
620.993	183.397	8.65967	183.601	-2.7034	09/05/2018 15:24:40.6994	-0.00933518	0.00281101	29.5959	0.0658391	1	11	0.0215957	0.000117623	0.00544053	0.000256892	0.00544659	2.7034	65.8392	1394.36	1395.91	-87.2966	0.0000000E+000	0.0000000E+000	0.0000000E+000	87.2966	0.0000000E+000	0.0000000E+000	0.0000000E+000	-87.2966	0.0000000E+000	0.0000000E+000	0.0000000E+000	-2.7034	0.0000000E+000	0.0000000E+000	0.0000000E+000	2.7034	21.1783	87.2966
465.149	184.698	9.82063	184.959	-3.04362	09/05/2018 15:24:42.3857	-0.00933593	0.00275843	34.8409	0.0982234	1	11	0.0215984	0.000116774	0.00539897	0.000287069	0.00540659	3.04362	98.2234	1847.31	1849.92	-86.9564	0.0000000E+000	0.0000000E+000	0.0000000E+000	86.9564	0.0000000E+000	0.0000000E+000	0.0000000E+000	-86.9564	0.0000000E+000	0.0000000E+000	0.0000000E+000	-3.04362	0.0000000E+000	0.0000000E+000	0.0000000E+000	3.04362	18.8072	86.9564
348.772	186.178	11.2779	186.52	-3.46651	09/05/2018 15:24:44.0805	-0.00934184	0.00276086	40.4621	0.147931	1	11	0.0215997	0.000115804	0.00535156	0.000324176	0.00536137	3.46651	147.931	2442.07	2446.55	-86.5335	0.0000000E+000	0.0000000E+000	0.0000000E+000	86.5335	0.0000000E+000	0.0000000E+000	0.0000000E+000	-86.5335	0.0000000E+000	0.0000000E+000	0.0000000E+000	-3.46651	0.0000000E+000	0.0000000E+000	0.0000000E+000	3.46651	16.5082	86.5335
261.422	187.899	12.9287	188.344	-3.93611	09/05/2018 15:24:45.7597	-0.00933626	0.00275694	47.0895	0.221886	1	11	0.0215945	0.000114655	0.00529692	0.000364462	0.00530944	3.93611	221.886	3224.79	3232.41	-86.0639	0.0000000E+000	0.0000000E+000	0.0000000E+000	86.0639	0.0000000E+000	0.0000000E+000	0.0000000E+000	-86.0639	0.0000000E+000	0.0000000E+000	0.0000000E+000	-3.93611	0.0000000E+000	0.0000000E+000	0.0000000E+000	3.93611	14.5335	86.0639
195.815	189.848	14.7418	190.419	-4.44014	09/05/2018 15:24:47.4399	-0.00933602	0.00274147	55.1347	0.330449	1	11	0.0215943	0.000113404	0.00523581	0.000406564	0.00525157	4.44014	330.449	4255.59	4268.4	-85.5599	0.0000000E+000	0.0000000E+000	0.0000000E+000	85.5599	0.0000000E+000	0.0000000E+000	0.0000000E+000	-85.5599	0.0000000E+000	0.0000000E+000	0.0000000E+000	-4.44014	0.0000000E+000	0.0000000E+000	0.0000000E+000	4.44014	12.8782	85.5599
146.737	192.106	16.991	192.856	-5.05441	09/05/2018 15:24:49.1084	-0.00933401	0.00273363	63.8354	0.495484	1	11	0.0215937	0.000111968	0.00516504	0.000456825	0.00518521	5.05441	495.484	5602.13	5624	-84.9456	0.0000000E+000	0.0000000E+000	0.0000000E+000	84.9456	0.0000000E+000	0.0000000E+000	0.0000000E+000	-84.9456	0.0000000E+000	0.0000000E+000	0.0000000E+000	-5.05441	0.0000000E+000	0.0000000E+000	0.0000000E+000	5.05441	11.3064	84.9456
109.894	194.777	19.6353	195.764	-5.75647	09/05/2018 15:24:50.7969	-0.00933949	0.00271685	73.7577	0.742016	1	11	0.0215935	0.000110304	0.00508242	0.000512353	0.00510818	5.75647	742.016	7360.63	7397.93	-84.2435	0.0000000E+000	0.0000000E+000	0.0000000E+000	84.2435	0.0000000E+000	0.0000000E+000	0.0000000E+000	-84.2435	0.0000000E+000	0.0000000E+000	0.0000000E+000	-5.75647	0.0000000E+000	0.0000000E+000	0.0000000E+000	5.75647	9.91977	84.2435
82.3451	197.809	22.6416	199.1	-6.52978	09/05/2018 15:24:52.4381	-0.00933201	0.0027961	85.364	1.10394	1	11	0.0215969	0.000108472	0.00499001	0.000571167	0.00502259	6.52978	1103.94	9644.58	9707.56	-83.4702	0.0000000E+000	0.0000000E+000	0.0000000E+000	83.4702	0.0000000E+000	0.0000000E+000	0.0000000E+000	-83.4702	0.0000000E+000	0.0000000E+000	0.0000000E+000	-6.52978	0.0000000E+000	0.0000000E+000	0.0000000E+000	6.52978	8.73652	83.4702
61.6776	201.376	26.1959	203.073	-7.41166	09/05/2018 15:24:54.3263	-0.00934231	0.000244643	98.5052	1.63916	1	12	0.0216078	0.000106404	0.0048832	0.000635227	0.00492434	7.41166	1639.16	12600.8	12706.9	-82.5883	0.0000000E+000	0.0000000E+000	0.0000000E+000	82.5883	0.0000000E+000	0.0000000E+000	0.0000000E+000	-82.5883	0.0000000E+000	0.0000000E+000	0.0000000E+000	-7.41166	0.0000000E+000	0.0000000E+000	0.0000000E+000	7.41166	7.68732	82.5883
46.1974	205.498	30.2299	207.709	-8.36851	09/05/2018 15:24:55.9726	-0.00933606	0.000259808	113.964	2.41394	1	12	0.0216038	0.00010401	0.00476316	0.000700687	0.00481442	8.36851	2413.94	16409.6	16586.2	-81.6315	0.0000000E+000	0.0000000E+000	0.0000000E+000	81.6315	0.0000000E+000	0.0000000E+000	0.0000000E+000	-81.6315	0.0000000E+000	0.0000000E+000	0.0000000E+000	-8.36851	0.0000000E+000	0.0000000E+000	0.0000000E+000	8.36851	6.79784	81.6315
34.6123	210.286	34.8412	213.153	-9.40757	09/05/2018 15:24:57.6780	-0.00934337	0.000250295	131.976	3.52614	1	12	0.021602	0.000101345	0.00462837	0.00076685	0.00469147	9.40757	3526.14	21282.2	21572.4	-80.5924	0.0000000E+000	0.0000000E+000	0.0000000E+000	80.5924	0.0000000E+000	0.0000000E+000	0.0000000E+000	-80.5924	0.0000000E+000	0.0000000E+000	0.0000000E+000	-9.40757	0.0000000E+000	0.0000000E+000	0.0000000E+000	9.40757	6.03556	80.5924
25.9379	215.797	40.114	219.494	-10.5304	09/05/2018 15:24:59.3085	-0.00933389	0.000237425	152.964	5.10901	1	12	0.0215977	9.83977e-05	0.0044792	0.000832629	0.00455594	10.5304	5109.01	27484.4	27955.2	-79.4696	0.0000000E+000	0.0000000E+000	0.0000000E+000	79.4696	0.0000000E+000	0.0000000E+000	0.0000000E+000	-79.4696	0.0000000E+000	0.0000000E+000	0.0000000E+000	-10.5304	0.0000000E+000	0.0000000E+000	0.0000000E+000	10.5304	5.37959	79.4696
19.4341	222.24	46.1794	226.987	-11.7385	09/05/2018 15:25:01.0436	-0.00933315	0.000256647	177.34	7.34013	1	12	0.0216001	9.516e-05	0.00431341	0.000896288	0.00440555	11.7385	7340.13	35324.6	36079.1	-78.2615	0.0000000E+000	0.0000000E+000	0.0000000E+000	78.2615	0.0000000E+000	0.0000000E+000	0.0000000E+000	-78.2615	0.0000000E+000	0.0000000E+000	0.0000000E+000	-11.7385	0.0000000E+000	0.0000000E+000	0.0000000E+000	11.7385	4.81252	78.2615
14.5756	229.562	53.0798	235.619	-13.0192	09/05/2018 15:25:02.7776	-0.00933656	0.000237033	205.715	10.4401	1	12	0.0215988	9.16687e-05	0.00413505	0.000956115	0.00424415	13.0192	10440.1	45151.9	46343.1	-76.9808	0.0000000E+000	0.0000000E+000	0.0000000E+000	76.9808	0.0000000E+000	0.0000000E+000	0.0000000E+000	-76.9808	0.0000000E+000	0.0000000E+000	0.0000000E+000	-13.0192	0.0000000E+000	0.0000000E+000	0.0000000E+000	13.0192	4.32485	76.9808
10.9113	238.018	61.0353	245.719	-14.3825	09/05/2018 15:25:04.3330	-0.00934294	0.00031379	238.98	14.7451	1	12	0.0215946	8.78834e-05	0.00394214	0.00101089	0.00406969	14.3825	14745.1	57501	59361.4	-75.6175	0.0000000E+000	0.0000000E+000	0.0000000E+000	75.6175	0.0000000E+000	0.0000000E+000	0.0000000E+000	-75.6175	0.0000000E+000	0.0000000E+000	0.0000000E+000	-14.3825	0.0000000E+000	0.0000000E+000	0.0000000E+000	14.3825	3.89968	75.6175
8.17207	247.815	70.0853	257.535	-15.7916	09/05/2018 15:25:06.3755	-0.00932932	0.000276997	277.882	20.5799	1	12	0.0215964	8.38581e-05	0.00373642	0.00105671	0.00388297	15.7916	20579.9	72768.6	75622.7	-74.2084	0.0000000E+000	0.0000000E+000	0.0000000E+000	74.2084	0.0000000E+000	0.0000000E+000	0.0000000E+000	-74.2084	0.0000000E+000	0.0000000E+000	0.0000000E+000	-15.7916	0.0000000E+000	0.0000000E+000	0.0000000E+000	15.7916	3.5359	74.2084
6.12265	258.998	80.3679	271.181	-17.2393	09/05/2018 15:25:07.7751	-0.0093355	0.000290772	323.443	28.4083	1	12	0.0215953	7.96344e-05	0.00352191	0.00109286	0.00368757	17.2393	28408.3	91550.2	95856.5	-72.7607	0.0000000E+000	0.0000000E+000	0.0000000E+000	72.7607	0.0000000E+000	0.0000000E+000	0.0000000E+000	-72.7607	0.0000000E+000	0.0000000E+000	0.0000000E+000	-17.2393	0.0000000E+000	0.0000000E+000	0.0000000E+000	17.2393	3.22266	72.7607
4.5848	271.866	92.2179	287.08	-18.7371	09/05/2018 15:25:09.6079	-0.00933143	0.000232117	376.43	38.8426	1	12	0.0215977	7.52324e-05	0.00329874	0.00111894	0.00348335	18.7371	38842.6	114511	120919	-71.2629	0.0000000E+000	0.0000000E+000	0.0000000E+000	71.2629	0.0000000E+000	0.0000000E+000	0.0000000E+000	-71.2629	0.0000000E+000	0.0000000E+000	0.0000000E+000	-18.7371	0.0000000E+000	0.0000000E+000	0.0000000E+000	18.7371	2.94808	71.2629
3.4386	286.435	105.752	305.333	-20.2641	09/05/2018 15:25:12.0176	-0.00932881	0.000319349	437.675	52.5023	1	12	0.0215976	7.07346e-05	0.0030724	0.00113433	0.00327511	20.2641	52502.3	142206	151588	-69.7359	0.0000000E+000	0.0000000E+000	0.0000000E+000	69.7359	0.0000000E+000	0.0000000E+000	0.0000000E+000	-69.7359	0.0000000E+000	0.0000000E+000	0.0000000E+000	-20.2641	0.0000000E+000	0.0000000E+000	0.0000000E+000	20.2641	2.70856	69.7359
2.57329	303.347	121.44	326.752	-21.818	09/05/2018 15:25:15.2055	-0.00932486	0.000281951	509.294	70.349	1	12	0.0215956	6.60917e-05	0.0028412	0.00113743	0.00306042	21.818	70349	175725	189284	-68.182	0.0000000E+000	0.0000000E+000	0.0000000E+000	68.182	0.0000000E+000	0.0000000E+000	0.0000000E+000	-68.182	0.0000000E+000	0.0000000E+000	0.0000000E+000	-21.818	0.0000000E+000	0.0000000E+000	0.0000000E+000	21.818	2.49791	68.182
1.92901	322.517	139.254	351.296	-23.3534	09/05/2018 15:25:19.4283	-0.00932441	0.000277899	592.485	93.0995	1	12	0.0215965	6.14766e-05	0.0026134	0.0011284	0.0028466	23.3534	93099.5	215621	234862	-66.6466	0.0000000E+000	0.0000000E+000	0.0000000E+000	66.6466	0.0000000E+000	0.0000000E+000	0.0000000E+000	-66.6466	0.0000000E+000	0.0000000E+000	0.0000000E+000	-23.3534	0.0000000E+000	0.0000000E+000	0.0000000E+000	23.3534	2.31603	66.6466
1.44676	344.468	159.646	379.665	-24.8657	09/05/2018 15:25:25.0342	-0.00931974	0.00027226	689.073	121.838	1	12	0.0215964	5.68827e-05	0.00238973	0.00110754	0.0026339	24.8657	121838	262889	289750	-65.1343	0.0000000E+000	0.0000000E+000	0.0000000E+000	65.1343	0.0000000E+000	0.0000000E+000	0.0000000E+000	-65.1343	0.0000000E+000	0.0000000E+000	0.0000000E+000	-24.8657	0.0000000E+000	0.0000000E+000	0.0000000E+000	24.8657	2.1577	65.1343
1.08236	369.815	183.509	412.842	-26.3915	09/05/2018 15:25:32.4990	-0.00932649	0.000270712	801.288	158.321	1	12	0.0215958	5.23101e-05	0.00216978	0.00107669	0.00242223	26.3915	158320	319053	356175	-63.6085	0.0000000E+000	0.0000000E+000	0.0000000E+000	63.6085	0.0000000E+000	0.0000000E+000	0.0000000E+000	-63.6085	0.0000000E+000	0.0000000E+000	0.0000000E+000	-26.3915	0.0000000E+000	0.0000000E+000	0.0000000E+000	26.3915	2.01524	63.6085
0.811773	398.96	210.814	451.233	-27.8524	09/05/2018 15:25:43.7042	-0.00932314	3.23699e-05	930.008	202.994	1	13	0.0215974	4.78631e-05	0.00195942	0.00103537	0.00221615	27.8524	202994	384161	434495	-62.1476	0.0000000E+000	0.0000000E+000	0.0000000E+000	62.1476	0.0000000E+000	0.0000000E+000	0.0000000E+000	-62.1476	0.0000000E+000	0.0000000E+000	0.0000000E+000	-27.8524	0.0000000E+000	0.0000000E+000	0.0000000E+000	27.8524	1.89247	62.1476
0.607315	432.692	241.944	495.741	-29.2121	09/05/2018 15:25:56.9514	-0.00930855	5.24249e-05	1083.16	257.994	1	13	0.021596	4.3563e-05	0.00176063	0.000984474	0.00201718	29.2121	257994	461397	528629	-60.7879	0.0000000E+000	0.0000000E+000	0.0000000E+000	60.7879	0.0000000E+000	0.0000000E+000	0.0000000E+000	-60.7879	0.0000000E+000	0.0000000E+000	0.0000000E+000	-29.2121	0.0000000E+000	0.0000000E+000	0.0000000E+000	29.2121	1.7884	60.7879
0.455911	471.616	275.534	546.206	-30.2949	09/05/2018 15:26:14.5744	-0.00931423	5.28788e-05	1266.96	322.405	1	13	0.0215989	3.95434e-05	0.0015808	0.000923555	0.00183081	30.2949	322405	551843	639121	-59.7051	0.0000000E+000	0.0000000E+000	0.0000000E+000	59.7051	0.0000000E+000	0.0000000E+000	0.0000000E+000	-59.7051	0.0000000E+000	0.0000000E+000	0.0000000E+000	-30.2949	0.0000000E+000	0.0000000E+000	0.0000000E+000	30.2949	1.71164	59.7051
0.341098	514.382	311.694	601.451	-31.2141	09/05/2018 15:26:38.1056	-0.00932118	6.81332e-05	1496.97	402.041	1	13	0.0215979	3.59097e-05	0.00142196	0.000861647	0.00166265	31.2141	402042	663480	775785	-58.7859	0.0000000E+000	0.0000000E+000	0.0000000E+000	58.7859	0.0000000E+000	0.0000000E+000	0.0000000E+000	-58.7859	0.0000000E+000	0.0000000E+000	0.0000000E+000	-31.2141	0.0000000E+000	0.0000000E+000	0.0000000E+000	31.2141	1.65028	58.7859
0.255712	557.843	351.323	659.255	-32.2023	09/05/2018 15:27:09.4755	-0.00931945	5.54112e-05	1771.59	503.118	1	13	0.0215973	3.27602e-05	0.00128353	0.000808352	0.00151686	32.2023	503118	798868	944097	-57.7977	0.0000000E+000	0.0000000E+000	0.0000000E+000	57.7977	0.0000000E+000	0.0000000E+000	0.0000000E+000	-57.7977	0.0000000E+000	0.0000000E+000	0.0000000E+000	-32.2023	0.0000000E+000	0.0000000E+000	0.0000000E+000	32.2023	1.58783	57.7977
0.191483	597.541	398.639	718.309	-33.7086	09/05/2018 15:27:51.3457	-0.00932436	5.09142e-05	2085.02	642.166	1	13	0.0215962	3.00654e-05	0.0011581	0.000772604	0.00139216	33.7086	642166	962576	1.15712e+06	-56.2914	0.0000000E+000	0.0000000E+000	0.0000000E+000	56.2914	0.0000000E+000	0.0000000E+000	0.0000000E+000	-56.2914	0.0000000E+000	0.0000000E+000	0.0000000E+000	-33.7086	0.0000000E+000	0.0000000E+000	0.0000000E+000	33.7086	1.49895	56.2914
0.143612	630.847	461.041	781.362	-36.1604	09/05/2018 15:28:47.1518	-0.00932038	6.148e-05	2403.75	836.881	1	13	0.0215948	2.76374e-05	0.00103328	0.000755152	0.00127982	36.1604	836881	1.14511e+06	1.41833e+06	-53.8396	0.0000000E+000	0.0000000E+000	0.0000000E+000	53.8396	0.0000000E+000	0.0000000E+000	0.0000000E+000	-53.8396	0.0000000E+000	0.0000000E+000	0.0000000E+000	-36.1604	0.0000000E+000	0.0000000E+000	0.0000000E+000	36.1604	1.36831	53.8396
0.107433	657.874	550.113	857.567	-39.9023	09/05/2018 15:30:01.7305	-0.00932056	4.20012e-05	2692.98	1108.15	1	13	0.0215947	2.51814e-05	0.000894553	0.000748023	0.00116609	39.9023	1.10815e+06	1.32523e+06	1.72749e+06	-50.0977	0.0000000E+000	0.0000000E+000	0.0000000E+000	50.0977	0.0000000E+000	0.0000000E+000	0.0000000E+000	-50.0977	0.0000000E+000	0.0000000E+000	0.0000000E+000	-39.9023	0.0000000E+000	0.0000000E+000	0.0000000E+000	39.9023	1.19589	50.0977
0.0805064	679.6	675.077	957.907	-44.8087	09/05/2018 15:31:41.2325	-0.00931922	4.43896e-05	2928.44	1454.44	1	13	0.0215945	2.25434e-05	0.000740639	0.00073571	0.00104394	44.8087	1.45444e+06	1.46419e+06	2.0638e+06	-45.1913	0.0000000E+000	0.0000000E+000	0.0000000E+000	45.1913	0.0000000E+000	0.0000000E+000	0.0000000E+000	-45.1913	0.0000000E+000	0.0000000E+000	0.0000000E+000	-44.8087	0.0000000E+000	0.0000000E+000	0.0000000E+000	44.8087	1.0067	45.1913
0.0603543	699.73	846.873	1098.55	-50.4348	09/05/2018 15:33:53.9370	-0.00931653	0.000101137	3113.82	1850.5	1	13	0.0215999	1.96622e-05	0.000579815	0.000701742	0.000910289	50.4348	1.8505e+06	1.52898e+06	2.40044e+06	-39.5652	0.0000000E+000	0.0000000E+000	0.0000000E+000	39.5652	0.0000000E+000	0.0000000E+000	0.0000000E+000	-39.5652	0.0000000E+000	0.0000000E+000	0.0000000E+000	-50.4348	0.0000000E+000	0.0000000E+000	0.0000000E+000	50.4348	0.826251	39.5652
0.0451955	716.958	1088.57	1303.47	-56.6303	09/05/2018 15:36:51.1310	-0.00931965	3.69143e-05	3234.94	2256.23	1	13	0.0215955	1.65677e-05	0.000421982	0.000640706	0.000767185	56.6303	2.25623e+06	1.486e+06	2.70162e+06	-33.3697	0.0000000E+000	0.0000000E+000	0.0000000E+000	33.3697	0.0000000E+000	0.0000000E+000	0.0000000E+000	-33.3697	0.0000000E+000	0.0000000E+000	0.0000000E+000	-56.6303	0.0000000E+000	0.0000000E+000	0.0000000E+000	56.6303	0.658621	33.3697
0.0339084	735.846	1412.09	1592.31	-62.4757	09/05/2018 15:40:47.2870	-0.00932209	4.27346e-05	3323.92	2614.07	1	13	0.0215944	1.35616e-05	0.000290222	0.000556935	0.000628017	62.4757	2.61407e+06	1.36221e+06	2.94771e+06	-27.5243	0.0000000E+000	0.0000000E+000	0.0000000E+000	27.5243	0.0000000E+000	0.0000000E+000	0.0000000E+000	-27.5243	0.0000000E+000	0.0000000E+000	0.0000000E+000	-62.4757	0.0000000E+000	0.0000000E+000	0.0000000E+000	62.4757	0.521105	27.5243
0.0253679	758.022	1850.78	2000	-67.7276	09/05/2018 15:46:02.9285	-0.00932062	3.84448e-05	3389.85	2902.9	1	13	0.0215937	1.07969e-05	0.000189506	0.000462696	0.0005	67.7276	2.9029e+06	1.18893e+06	3.13694e+06	-22.2724	0.0000000E+000	0.0000000E+000	0.0000000E+000	22.2724	0.0000000E+000	0.0000000E+000	0.0000000E+000	-22.2724	0.0000000E+000	0.0000000E+000	0.0000000E+000	-67.7276	0.0000000E+000	0.0000000E+000	0.0000000E+000	67.7276	0.409568	22.2724
0.0190363	784.653	2430.59	2554.1	-72.1087	09/05/2018 15:53:03.5338	-0.00932415	3.69917e-05	3439.74	3115.1	1	13	0.0215925	8.45404e-06	0.000120282	0.000372593	0.000391527	72.1087	3.1151e+06	1.00563e+06	3.2734e+06	-17.8913	0.0000000E+000	0.0000000E+000	0.0000000E+000	17.8913	0.0000000E+000	0.0000000E+000	0.0000000E+000	-17.8913	0.0000000E+000	0.0000000E+000	0.0000000E+000	-72.1087	0.0000000E+000	0.0000000E+000	0.0000000E+000	72.1087	0.322824	17.8913
0.0142564	819.167	3207.49	3310.44	-75.6734	09/05/2018 16:02:25.1402	-0.00932124	3.56146e-05	3480.53	3267.41	1	13	0.0215928	6.52263e-06	7.47482e-05	0.00029268	0.000302074	75.6734	3.26741e+06	834471	3.37229e+06	-14.3266	0.0000000E+000	0.0000000E+000	0.0000000E+000	14.3266	0.0000000E+000	0.0000000E+000	0.0000000E+000	-14.3266	0.0000000E+000	0.0000000E+000	0.0000000E+000	-75.6734	0.0000000E+000	0.0000000E+000	0.0000000E+000	75.6734	0.255392	14.3266
0.0106845	863.632	4237.13	4324.25	-78.4795	09/05/2018 16:14:54.4746	-0.00931854	3.2303e-05	3515.56	3375.33	1	13	0.0215924	4.99334e-06	4.61857e-05	0.000226595	0.000231254	78.4795	3.37533e+06	687977	3.44473e+06	-11.5205	0.0000000E+000	0.0000000E+000	0.0000000E+000	11.5205	0.0000000E+000	0.0000000E+000	0.0000000E+000	-11.5205	0.0000000E+000	0.0000000E+000	0.0000000E+000	-78.4795	0.0000000E+000	0.0000000E+000	0.0000000E+000	78.4795	0.203825	11.5205
0.0080046	923.075	5603.81	5679.33	-80.6461	09/05/2018 16:33:39.7816	-0.00930946	1.03827e-06	3548.11	3454.38	1	14	0.0215921	3.80187e-06	2.86182e-05	0.000173736	0.000176077	80.6461	3.45438e+06	569014	3.50093e+06	-9.35391	0.0000000E+000	0.0000000E+000	0.0000000E+000	9.35391	0.0000000E+000	0.0000000E+000	0.0000000E+000	-9.35391	0.0000000E+000	0.0000000E+000	0.0000000E+000	-80.6461	0.0000000E+000	0.0000000E+000	0.0000000E+000	80.6461	0.164723	9.35391