File: exp data/EIS mpt files/two combined/RM_stacked second run DS_3+12_2_C06.mpt
EC-Lab ASCII FILE
Nb header lines : 66

Potentio Electrochemical Impedance Spectroscopy

Run on channel : 6 (SN 13224)
User :
CE vs. WE compliance from -10 V to 10 V
Electrode connection : standard
Potential control : Ewe
Ewe ctrl range : min = -1.00 V, max = 1.00 V
Safety Limits :
	Do not start on E overload
Acquisition started on : 09/05/2018 15:23:46.000
Loaded Setting File : NONE
Saved on :
	File : RM_stacked second run DS_3+12_2_C06.mpr
	Directory : D:\Robert\Stacked cells\Second run 3% and 12% PVDF electrodes 12%compressed\
	Host : 10.5.5.6
Device : VMP3 (SN 0628)
Address : 10.5.5.5
EC-Lab for windows v11.17 (software)
Internet server v11.16 (firmware)
Command interpretor v11.16 (firmware)
Electrode material :
Initial state :
Electrolyte :
Comments :
Electrode surface area : 0.001 cm²
Characteristic mass : 0.001 g
Equivalent Weight : 0.000 g/eq.
Density : 0.000 g/cm3
Volume (V) : 0.000 m³
Text export
   Mode : Standard
   Time format : Elapsed
Cycle Definition : Charge/Discharge alternance
Mode                Single sine
E (V)               0.0000
vs.                 Eoc
tE (h:m:s)          0:00:3.0000
record              1
dI                  0.000
unit dI             mA
dt (s)              60.000
fi                  200.000
unit fi             kHz
ff                  10.000
unit ff             mHz
Nd                  8
Points              per decade
spacing             Logarithmic
Va (mV)             20.0
pw                  3.00
Na                  5
corr                0
E range min (V)     -1.000
E range max (V)     1.000
I Range             Auto
Bandwidth           5
nc cycles           0
goto Ns'            0
nr cycles           0
inc. cycle          0

freq/Hz	Re(Z)/Ohm	-Im(Z)/Ohm	|Z|/Ohm	Phase(Z)/deg	time/s	<Ewe>/V	<I>/mA	Cs/µF	Cp/µF	cycle number	I Range	|Ewe|/V	|I|/A	Re(Y)/Ohm-1	Im(Y)/Ohm-1	|Y|/Ohm-1	Phase(Y)/deg	Re(C)/nF	Im(C)/nF	|C|/nF	Phase(C)/deg	Re(M)	Im(M)	|M|	Phase(M)/deg	Re(Permittivity)	Im(Permittivity)	|Permittivity|	Phase(Permittivity)/deg	Re(Resistivity)/Ohm.cm	Im(Resistivity)/Ohm.cm	|Resistivity|/Ohm.cm	Phase(Resistivity)/deg	Re(Conductivity)/mS/cm	Im(Conductivity)/mS/cm	|Conductivity|/mS/cm	Phase(Conductivity)/deg	Tan(Delta)	Loss Angle(Delta)/deg
200019	138.568	0.256298	138.569	-0.105975	09/05/2018 15:23:51.1871	-0.126969	-0.00799189	3.10458	1.06209e-05	1	11	0.0180784	0.000130465	0.00721662	1.33479e-05	0.00721664	0.105975	0.0106207	5.74225	5.74226	-89.894	0.0000000E+000	0.0000000E+000	0.0000000E+000	89.894	0.0000000E+000	0.0000000E+000	0.0000000E+000	-89.894	0.0000000E+000	0.0000000E+000	0.0000000E+000	-0.105975	0.0000000E+000	0.0000000E+000	0.0000000E+000	0.105975	540.655	89.894
149678	137.985	0.547983	137.986	-0.22754	09/05/2018 15:23:52.2511	-0.125477	0.00278107	1.94042	3.06029e-05	1	11	0.0205271	0.000148762	0.00724707	2.87806e-05	0.00724713	0.22754	0.0306028	7.70594	7.706	-89.7725	0.0000000E+000	0.0000000E+000	0.0000000E+000	89.7725	0.0000000E+000	0.0000000E+000	0.0000000E+000	-89.7725	0.0000000E+000	0.0000000E+000	0.0000000E+000	-0.22754	0.0000000E+000	0.0000000E+000	0.0000000E+000	0.22754	251.804	89.7725
112012	137.738	0.885931	137.74	-0.368522	09/05/2018 15:23:53.3151	-0.125484	0.00274806	1.60383	6.63489e-05	1	11	0.0208203	0.000151156	0.00725988	4.66957e-05	0.00726003	0.368522	0.0663489	10.3154	10.3156	-89.6315	0.0000000E+000	0.0000000E+000	0.0000000E+000	89.6315	0.0000000E+000	0.0000000E+000	0.0000000E+000	-89.6315	0.0000000E+000	0.0000000E+000	0.0000000E+000	-0.368522	0.0000000E+000	0.0000000E+000	0.0000000E+000	0.368522	155.472	89.6315
83828.1	137.74	1.20262	137.745	-0.50024	09/05/2018 15:23:54.3801	-0.125472	0.00278181	1.57871	0.000120338	1	11	0.0206843	0.000150163	0.0072595	6.3383e-05	0.00725977	0.50024	0.120337	13.7828	13.7833	-89.4998	0.0000000E+000	0.0000000E+000	0.0000000E+000	89.4998	0.0000000E+000	0.0000000E+000	0.0000000E+000	-89.4998	0.0000000E+000	0.0000000E+000	0.0000000E+000	-0.50024	0.0000000E+000	0.0000000E+000	0.0000000E+000	0.50024	114.534	89.4998
62734.4	137.815	1.55599	137.824	-0.646868	09/05/2018 15:23:55.4441	-0.125478	0.00275738	1.63045	0.000207814	1	11	0.0206352	0.000149722	0.00725518	8.19142e-05	0.00725564	0.646868	0.207813	18.4061	18.4073	-89.3531	0.0000000E+000	0.0000000E+000	0.0000000E+000	89.3531	0.0000000E+000	0.0000000E+000	0.0000000E+000	-89.3531	0.0000000E+000	0.0000000E+000	0.0000000E+000	-0.646868	0.0000000E+000	0.0000000E+000	0.0000000E+000	0.646868	88.5704	89.3531
46953.1	138.017	1.89986	138.03	-0.78865	09/05/2018 15:23:56.5091	-0.125474	0.0027792	1.78416	0.00033801	1	11	0.020551	0.000148888	0.0072441	9.9718e-05	0.00724479	0.78865	0.33801	24.555	24.5573	-89.2113	0.0000000E+000	0.0000000E+000	0.0000000E+000	89.2113	0.0000000E+000	0.0000000E+000	0.0000000E+000	-89.2113	0.0000000E+000	0.0000000E+000	0.0000000E+000	-0.78865	0.0000000E+000	0.0000000E+000	0.0000000E+000	0.78865	72.6459	89.2113
35136.7	138.283	2.28066	138.302	-0.944877	09/05/2018 15:23:57.5731	-0.12548	0.00274731	1.98609	0.000540087	1	11	0.0203539	0.00014717	0.00722958	0.000119235	0.00723056	0.944877	0.540088	32.7471	32.7515	-89.0551	0.0000000E+000	0.0000000E+000	0.0000000E+000	89.0551	0.0000000E+000	0.0000000E+000	0.0000000E+000	-89.0551	0.0000000E+000	0.0000000E+000	0.0000000E+000	-0.944877	0.0000000E+000	0.0000000E+000	0.0000000E+000	0.944877	60.6329	89.0551
26298.8	138.629	2.62577	138.653	-1.08511	09/05/2018 15:23:58.6371	-0.125485	0.00275253	2.30477	0.000826568	1	11	0.0203004	0.000146411	0.00721093	0.000136582	0.00721222	1.08511	0.82657	43.639	43.6469	-88.9149	0.0000000E+000	0.0000000E+000	0.0000000E+000	88.9149	0.0000000E+000	0.0000000E+000	0.0000000E+000	-88.9149	0.0000000E+000	0.0000000E+000	0.0000000E+000	-1.08511	0.0000000E+000	0.0000000E+000	0.0000000E+000	1.08511	52.7955	88.9149
19677.7	139.069	3.0712	139.103	-1.26511	09/05/2018 15:23:59.7021	-0.125476	0.00280699	2.63352	0.00128375	1	11	0.0202678	0.000145703	0.00718716	0.000158721	0.00718891	1.26511	1.28375	58.1303	58.1445	-88.7349	0.0000000E+000	0.0000000E+000	0.0000000E+000	88.7349	0.0000000E+000	0.0000000E+000	0.0000000E+000	-88.7349	0.0000000E+000	0.0000000E+000	0.0000000E+000	-1.26511	0.0000000E+000	0.0000000E+000	0.0000000E+000	1.26511	45.2817	88.7349
14726.6	139.609	3.51925	139.653	-1.444	09/05/2018 15:24:00.6401	-0.125485	0.00280326	3.07092	0.00195014	1	11	0.0213733	0.000153045	0.00715831	0.000180446	0.00716058	1.444	1.95014	77.3623	77.3869	-88.556	0.0000000E+000	0.0000000E+000	0.0000000E+000	88.556	0.0000000E+000	0.0000000E+000	0.0000000E+000	-88.556	0.0000000E+000	0.0000000E+000	0.0000000E+000	-1.444	0.0000000E+000	0.0000000E+000	0.0000000E+000	1.444	39.6701	88.556
11025.4	140.228	3.97571	140.284	-1.624	09/05/2018 15:24:01.7051	-0.125475	0.00281948	3.63087	0.00291624	1	11	0.0202375	0.000144261	0.00712551	0.000202021	0.00712838	1.624	2.91623	102.859	102.9	-88.376	0.0000000E+000	0.0000000E+000	0.0000000E+000	88.376	0.0000000E+000	0.0000000E+000	0.0000000E+000	-88.376	0.0000000E+000	0.0000000E+000	0.0000000E+000	-1.624	0.0000000E+000	0.0000000E+000	0.0000000E+000	1.624	35.2712	88.376
8325.19	140.968	4.50219	141.04	-1.82927	09/05/2018 15:24:02.7966	-0.125467	0.00286014	4.24621	0.00432679	1	11	0.020609	0.000146122	0.00708657	0.000226329	0.00709019	1.82927	4.32678	135.476	135.545	-88.1707	0.0000000E+000	0.0000000E+000	0.0000000E+000	88.1707	0.0000000E+000	0.0000000E+000	0.0000000E+000	-88.1707	0.0000000E+000	0.0000000E+000	0.0000000E+000	-1.82927	0.0000000E+000	0.0000000E+000	0.0000000E+000	1.82927	31.311	88.1707
6195.49	141.856	5.02284	141.944	-2.02789	09/05/2018 15:24:04.2118	-0.125473	0.00268726	5.11441	0.00640408	1	11	0.0208346	0.00014678	0.0070406	0.000249294	0.00704501	2.02789	6.40407	180.865	180.978	-87.9721	0.0000000E+000	0.0000000E+000	0.0000000E+000	87.9721	0.0000000E+000	0.0000000E+000	0.0000000E+000	-87.9721	0.0000000E+000	0.0000000E+000	0.0000000E+000	-2.02789	0.0000000E+000	0.0000000E+000	0.0000000E+000	2.02789	28.2421	87.9721
4621.48	142.838	5.55019	142.946	-2.2252	09/05/2018 15:24:05.8997	-0.125471	0.00274023	6.20485	0.00935416	1	11	0.0209609	0.000146636	0.00699039	0.000271622	0.00699566	2.2252	9.35416	240.736	240.917	-87.7748	0.0000000E+000	0.0000000E+000	0.0000000E+000	87.7748	0.0000000E+000	0.0000000E+000	0.0000000E+000	-87.7748	0.0000000E+000	0.0000000E+000	0.0000000E+000	-2.2252	0.0000000E+000	0.0000000E+000	0.0000000E+000	2.2252	25.7357	87.7748
3456.11	143.867	6.04277	143.994	-2.40515	09/05/2018 15:24:07.5877	-0.125476	0.00273071	7.62074	0.0134209	1	11	0.0210262	0.000146021	0.00693862	0.000291439	0.00694474	2.40515	13.4209	319.526	319.808	-87.5948	0.0000000E+000	0.0000000E+000	0.0000000E+000	87.5948	0.0000000E+000	0.0000000E+000	0.0000000E+000	-87.5948	0.0000000E+000	0.0000000E+000	0.0000000E+000	-2.40515	0.0000000E+000	0.0000000E+000	0.0000000E+000	2.40515	23.8081	87.5948
2585.83	145.021	6.56725	145.17	-2.59285	09/05/2018 15:24:09.2747	-0.125472	0.00275328	9.37211	0.0191801	1	11	0.0210652	0.000145107	0.00688143	0.000311624	0.00688848	2.59285	19.1801	423.545	423.979	-87.4072	0.0000000E+000	0.0000000E+000	0.0000000E+000	87.4072	0.0000000E+000	0.0000000E+000	0.0000000E+000	-87.4072	0.0000000E+000	0.0000000E+000	0.0000000E+000	-2.59285	0.0000000E+000	0.0000000E+000	0.0000000E+000	2.59285	22.0825	87.4072
1935.62	146.146	7.10317	146.319	-2.78257	09/05/2018 15:24:10.9627	-0.125466	0.00273855	11.5757	0.0272806	1	11	0.0210778	0.000144054	0.00682634	0.000331782	0.0068344	2.78257	27.2806	561.291	561.954	-87.2174	0.0000000E+000	0.0000000E+000	0.0000000E+000	87.2174	0.0000000E+000	0.0000000E+000	0.0000000E+000	-87.2174	0.0000000E+000	0.0000000E+000	0.0000000E+000	-2.78257	0.0000000E+000	0.0000000E+000	0.0000000E+000	2.78257	20.5748	87.2174
1448.61	147.371	7.74399	147.575	-3.00798	09/05/2018 15:24:12.6520	-0.12547	0.00267887	14.1874	0.039067	1	11	0.0210877	0.000142895	0.00676689	0.000355583	0.00677623	3.00798	39.067	743.461	744.487	-86.992	0.0000000E+000	0.0000000E+000	0.0000000E+000	86.992	0.0000000E+000	0.0000000E+000	0.0000000E+000	-86.992	0.0000000E+000	0.0000000E+000	0.0000000E+000	-3.00798	0.0000000E+000	0.0000000E+000	0.0000000E+000	3.00798	19.0304	86.992
1083.96	148.594	8.42336	148.832	-3.24447	09/05/2018 15:24:14.3410	-0.12547	0.00270125	17.431	0.0558341	1	11	0.0210882	0.000141691	0.00670821	0.00038027	0.00671898	3.24447	55.8341	984.949	986.53	-86.7555	0.0000000E+000	0.0000000E+000	0.0000000E+000	86.7555	0.0000000E+000	0.0000000E+000	0.0000000E+000	-86.7555	0.0000000E+000	0.0000000E+000	0.0000000E+000	-3.24447	0.0000000E+000	0.0000000E+000	0.0000000E+000	3.24447	17.6407	86.7555
811.298	149.923	9.26742	150.209	-3.53722	09/05/2018 15:24:16.0274	-0.125476	0.00267383	21.1681	0.0805765	1	11	0.0210927	0.000140422	0.00664472	0.000410742	0.0066574	3.53722	80.5766	1303.52	1306	-86.4628	0.0000000E+000	0.0000000E+000	0.0000000E+000	86.4628	0.0000000E+000	0.0000000E+000	0.0000000E+000	-86.4628	0.0000000E+000	0.0000000E+000	0.0000000E+000	-3.53722	0.0000000E+000	0.0000000E+000	0.0000000E+000	3.53722	16.1774	86.4628
607.527	151.287	10.2966	151.637	-3.89356	09/05/2018 15:24:17.7069	-0.125479	0.00264716	25.4425	0.117311	1	11	0.0210898	0.000139081	0.00657947	0.0004478	0.00659469	3.89356	117.311	1723.63	1727.62	-86.1064	0.0000000E+000	0.0000000E+000	0.0000000E+000	86.1064	0.0000000E+000	0.0000000E+000	0.0000000E+000	-86.1064	0.0000000E+000	0.0000000E+000	0.0000000E+000	-3.89356	0.0000000E+000	0.0000000E+000	0.0000000E+000	3.89356	14.6929	86.1064
454.564	152.869	11.5513	153.304	-4.32125	09/05/2018 15:24:19.3959	-0.125476	0.00267794	30.3107	0.172086	1	11	0.0210931	0.00013759	0.00650443	0.000491496	0.00652297	4.32125	172.086	2277.38	2283.87	-85.6788	0.0000000E+000	0.0000000E+000	0.0000000E+000	85.6788	0.0000000E+000	0.0000000E+000	0.0000000E+000	-85.6788	0.0000000E+000	0.0000000E+000	0.0000000E+000	-4.32125	0.0000000E+000	0.0000000E+000	0.0000000E+000	4.32125	13.2339	85.6788
340.109	154.534	13.1252	155.09	-4.85471	09/05/2018 15:24:21.0837	-0.125478	0.00261844	35.653	0.255351	1	11	0.0210906	0.000135989	0.00642472	0.000545678	0.00644785	4.85471	255.352	3006.47	3017.29	-85.1453	0.0000000E+000	0.0000000E+000	0.0000000E+000	85.1453	0.0000000E+000	0.0000000E+000	0.0000000E+000	-85.1453	0.0000000E+000	0.0000000E+000	0.0000000E+000	-4.85471	0.0000000E+000	0.0000000E+000	0.0000000E+000	4.85471	11.7738	85.1453
254.43	156.453	14.9538	157.166	-5.45976	09/05/2018 15:24:22.7732	-0.125474	0.002666	41.8311	0.378692	1	11	0.0210911	0.000134196	0.00633382	0.000605389	0.00636269	5.45976	378.692	3962.03	3980.09	-84.5402	0.0000000E+000	0.0000000E+000	0.0000000E+000	84.5402	0.0000000E+000	0.0000000E+000	0.0000000E+000	-84.5402	0.0000000E+000	0.0000000E+000	0.0000000E+000	-5.45976	0.0000000E+000	0.0000000E+000	0.0000000E+000	5.45976	10.4624	84.5402
190.549	158.635	17.2164	159.567	-6.19397	09/05/2018 15:24:24.4552	-0.12547	0.00269547	48.5145	0.56477	1	11	0.0210893	0.000132166	0.00623038	0.000676173	0.00626697	6.19397	564.77	5203.9	5234.46	-83.806	0.0000000E+000	0.0000000E+000	0.0000000E+000	83.806	0.0000000E+000	0.0000000E+000	0.0000000E+000	-83.806	0.0000000E+000	0.0000000E+000	0.0000000E+000	-6.19397	0.0000000E+000	0.0000000E+000	0.0000000E+000	6.19397	9.21419	83.806
142.492	161.171	19.9498	162.401	-7.05618	09/05/2018 15:24:26.1693	-0.12548	0.00261024	55.9875	0.844868	1	11	0.021086	0.000129839	0.00611095	0.000756414	0.00615759	7.05618	844.868	6825.56	6877.65	-82.9438	0.0000000E+000	0.0000000E+000	0.0000000E+000	82.9438	0.0000000E+000	0.0000000E+000	0.0000000E+000	-82.9438	0.0000000E+000	0.0000000E+000	0.0000000E+000	-7.05618	0.0000000E+000	0.0000000E+000	0.0000000E+000	7.05618	8.07885	82.9438
106.673	164.116	23.1476	165.74	-8.0283	09/05/2018 15:24:27.8316	-0.12548	0.00264194	64.4556	1.25724	1	11	0.0210867	0.000127227	0.00597441	0.000842658	0.00603354	8.0283	1257.24	8913.79	9002.01	-81.9717	0.0000000E+000	0.0000000E+000	0.0000000E+000	81.9717	0.0000000E+000	0.0000000E+000	0.0000000E+000	-81.9717	0.0000000E+000	0.0000000E+000	0.0000000E+000	-8.0283	0.0000000E+000	0.0000000E+000	0.0000000E+000	8.0283	7.08996	81.9717
79.8212	167.496	26.9693	169.653	-9.14695	09/05/2018 15:24:29.5212	-0.125478	0.00264978	73.9319	1.8683	1	11	0.0210886	0.000124304	0.00581942	0.000937011	0.00589437	9.14695	1868.3	11603.3	11752.7	-80.853	0.0000000E+000	0.0000000E+000	0.0000000E+000	80.853	0.0000000E+000	0.0000000E+000	0.0000000E+000	-80.853	0.0000000E+000	0.0000000E+000	0.0000000E+000	-9.14695	0.0000000E+000	0.0000000E+000	0.0000000E+000	9.14695	6.21061	80.853
59.7895	171.464	31.4283	174.32	-10.3867	09/05/2018 15:24:31.2155	-0.125473	0.00262721	84.6981	2.75309	1	11	0.0210848	0.000120954	0.00564257	0.00103425	0.00573657	10.3867	2753.09	15020.1	15270.3	-79.6133	0.0000000E+000	0.0000000E+000	0.0000000E+000	79.6133	0.0000000E+000	0.0000000E+000	0.0000000E+000	-79.6133	0.0000000E+000	0.0000000E+000	0.0000000E+000	-10.3867	0.0000000E+000	0.0000000E+000	0.0000000E+000	10.3867	5.45571	79.6133
44.728	176.077	36.7625	179.874	-11.7931	09/05/2018 15:24:32.9119	-0.12548	0.00264847	96.7912	4.04303	1	11	0.021087	0.000117232	0.00544209	0.00113623	0.00555944	11.7931	4043.03	19364.5	19782.1	-78.2069	0.0000000E+000	0.0000000E+000	0.0000000E+000	78.2069	0.0000000E+000	0.0000000E+000	0.0000000E+000	-78.2069	0.0000000E+000	0.0000000E+000	0.0000000E+000	-11.7931	0.0000000E+000	0.0000000E+000	0.0000000E+000	11.7931	4.7896	78.2069
33.4276	181.669	43.0476	186.7	-13.3307	09/05/2018 15:24:34.9302	-0.125478	0.000181608	110.603	5.87999	1	12	0.0210987	0.000113009	0.00521187	0.00123498	0.00535619	13.3307	5879.99	24814.7	25501.8	-76.6693	0.0000000E+000	0.0000000E+000	0.0000000E+000	76.6693	0.0000000E+000	0.0000000E+000	0.0000000E+000	-76.6693	0.0000000E+000	0.0000000E+000	0.0000000E+000	-13.3307	0.0000000E+000	0.0000000E+000	0.0000000E+000	13.3307	4.22019	76.6693
25.0401	188.116	50.3368	194.735	-14.9804	09/05/2018 15:24:36.6164	-0.125485	0.000212546	126.27	8.43693	1	12	0.0210961	0.000108333	0.00496067	0.00132739	0.00513519	14.9804	8436.93	31530.1	32639.4	-75.0196	0.0000000E+000	0.0000000E+000	0.0000000E+000	75.0196	0.0000000E+000	0.0000000E+000	0.0000000E+000	-75.0196	0.0000000E+000	0.0000000E+000	0.0000000E+000	-14.9804	0.0000000E+000	0.0000000E+000	0.0000000E+000	14.9804	3.73715	75.0196
18.735	195.734	58.8376	204.386	-16.7307	09/05/2018 15:24:38.4093	-0.125478	0.000187855	144.381	11.9651	1	12	0.0210927	0.0001032	0.00468558	0.00140848	0.0048927	16.7307	11965.1	39804.3	41563.7	-73.2693	0.0000000E+000	0.0000000E+000	0.0000000E+000	73.2693	0.0000000E+000	0.0000000E+000	0.0000000E+000	-73.2693	0.0000000E+000	0.0000000E+000	0.0000000E+000	-16.7307	0.0000000E+000	0.0000000E+000	0.0000000E+000	16.7307	3.32669	73.2693
14.0176	204.68	68.8019	215.934	-18.5797	09/05/2018 15:24:40.2088	-0.125477	0.000220098	165.023	16.7533	1	12	0.0210889	9.76633e-05	0.00438967	0.00147556	0.00463104	18.5797	16753.3	49839.9	52580.3	-71.4203	0.0000000E+000	0.0000000E+000	0.0000000E+000	71.4203	0.0000000E+000	0.0000000E+000	0.0000000E+000	-71.4203	0.0000000E+000	0.0000000E+000	0.0000000E+000	-18.5797	0.0000000E+000	0.0000000E+000	0.0000000E+000	18.5797	2.97492	71.4203
10.5007	215.258	80.3637	229.77	-20.4725	09/05/2018 15:24:41.8202	-0.125478	0.000205347	188.601	23.0715	1	12	0.02109	9.17875e-05	0.0040773	0.00152221	0.00435218	20.4725	23071.5	61798.1	65964.4	-69.5275	0.0000000E+000	0.0000000E+000	0.0000000E+000	69.5275	0.0000000E+000	0.0000000E+000	0.0000000E+000	-69.5275	0.0000000E+000	0.0000000E+000	0.0000000E+000	-20.4725	0.0000000E+000	0.0000000E+000	0.0000000E+000	20.4725	2.67855	69.5275
7.85965	227.769	93.8562	246.348	-22.395	09/05/2018 15:24:43.9412	-0.125472	0.000212881	215.751	31.317	1	12	0.0210885	8.56042e-05	0.00375314	0.00154655	0.00405929	22.395	31317	75999.6	82199.1	-67.605	0.0000000E+000	0.0000000E+000	0.0000000E+000	67.605	0.0000000E+000	0.0000000E+000	0.0000000E+000	-67.605	0.0000000E+000	0.0000000E+000	0.0000000E+000	-22.395	0.0000000E+000	0.0000000E+000	0.0000000E+000	22.395	2.42678	67.605
5.88291	242.732	109.396	266.245	-24.2604	09/05/2018 15:24:45.3917	-0.12548	0.000136777	247.302	41.7509	1	12	0.0210859	7.91972e-05	0.00342424	0.00154325	0.00375594	24.2604	41750.9	92638.7	101612	-65.7396	0.0000000E+000	0.0000000E+000	0.0000000E+000	65.7396	0.0000000E+000	0.0000000E+000	0.0000000E+000	-65.7396	0.0000000E+000	0.0000000E+000	0.0000000E+000	-24.2604	0.0000000E+000	0.0000000E+000	0.0000000E+000	24.2604	2.21884	65.7396
4.39893	260.543	127.519	290.076	-26.0787	09/05/2018 15:24:47.2981	-0.125482	0.000186242	283.726	54.8308	1	12	0.021086	7.26913e-05	0.0030964	0.00151548	0.00344738	26.0787	54830.8	112029	124727	-63.9213	0.0000000E+000	0.0000000E+000	0.0000000E+000	63.9213	0.0000000E+000	0.0000000E+000	0.0000000E+000	-63.9213	0.0000000E+000	0.0000000E+000	0.0000000E+000	-26.0787	0.0000000E+000	0.0000000E+000	0.0000000E+000	26.0787	2.04318	63.9213
3.29363	281.85	147.784	318.245	-27.6696	09/05/2018 15:24:49.8084	-0.125476	0.000189617	326.977	70.5099	1	12	0.0210841	6.62511e-05	0.00278289	0.00145917	0.00314224	27.6696	70509.9	134475	151839	-62.3304	0.0000000E+000	0.0000000E+000	0.0000000E+000	62.3304	0.0000000E+000	0.0000000E+000	0.0000000E+000	-62.3304	0.0000000E+000	0.0000000E+000	0.0000000E+000	-27.6696	0.0000000E+000	0.0000000E+000	0.0000000E+000	27.6696	1.90718	62.3304
2.46607	307.481	170.214	351.45	-28.9678	09/05/2018 15:24:53.1314	-0.125471	0.000228926	379.158	88.9371	1	12	0.0210864	5.99983e-05	0.00248938	0.00137806	0.00284536	28.9678	88937.1	160659	183633	-61.0322	0.0000000E+000	0.0000000E+000	0.0000000E+000	61.0322	0.0000000E+000	0.0000000E+000	0.0000000E+000	-61.0322	0.0000000E+000	0.0000000E+000	0.0000000E+000	-28.9678	0.0000000E+000	0.0000000E+000	0.0000000E+000	28.9678	1.80644	61.0322
1.84257	337.9	194.892	390.076	-29.9753	09/05/2018 15:24:57.5476	-0.125469	0.000223877	443.202	110.635	1	12	0.0210853	5.40542e-05	0.0022207	0.00128084	0.0025636	29.9753	110635	191816	221435	-60.0247	0.0000000E+000	0.0000000E+000	0.0000000E+000	60.0247	0.0000000E+000	0.0000000E+000	0.0000000E+000	-60.0247	0.0000000E+000	0.0000000E+000	0.0000000E+000	-29.9753	0.0000000E+000	0.0000000E+000	0.0000000E+000	29.9753	1.73378	60.0247
1.38128	372.741	220.857	433.259	-30.6476	09/05/2018 15:25:04.1820	-0.125466	-2.66764e-06	521.71	135.567	1	13	0.0210908	4.86795e-05	0.00198569	0.00117656	0.00230809	30.6476	135567	228798	265945	-59.3524	0.0000000E+000	0.0000000E+000	0.0000000E+000	59.3524	0.0000000E+000	0.0000000E+000	0.0000000E+000	-59.3524	0.0000000E+000	0.0000000E+000	0.0000000E+000	-30.6476	0.0000000E+000	0.0000000E+000	0.0000000E+000	30.6476	1.6877	59.3524
1.0334	412.714	248.379	481.69	-31.0404	09/05/2018 15:25:11.9979	-0.125469	1.45734e-05	620.064	164.867	1	13	0.0210878	4.37789e-05	0.00177875	0.00107049	0.00207603	31.0404	164867	273947	319731	-58.9596	0.0000000E+000	0.0000000E+000	0.0000000E+000	58.9596	0.0000000E+000	0.0000000E+000	0.0000000E+000	-58.9596	0.0000000E+000	0.0000000E+000	0.0000000E+000	-31.0404	0.0000000E+000	0.0000000E+000	0.0000000E+000	31.0404	1.66163	58.9596
0.773208	457.389	277.496	534.985	-31.245	09/05/2018 15:25:22.4198	-0.125467	1.80066e-05	741.765	199.571	1	13	0.0210878	3.94176e-05	0.00159809	0.000969558	0.00186921	31.245	199571	328947	384753	-58.755	0.0000000E+000	0.0000000E+000	0.0000000E+000	58.755	0.0000000E+000	0.0000000E+000	0.0000000E+000	-58.755	0.0000000E+000	0.0000000E+000	0.0000000E+000	-31.245	0.0000000E+000	0.0000000E+000	0.0000000E+000	31.245	1.64827	58.755
0.578532	507.034	307.713	593.103	-31.2531	09/05/2018 15:25:36.3232	-0.125467	7.76373e-05	894.019	240.646	1	13	0.0210843	3.55491e-05	0.00144138	0.000874755	0.00168605	31.2531	240646	396524	463834	-58.7469	0.0000000E+000	0.0000000E+000	0.0000000E+000	58.7469	0.0000000E+000	0.0000000E+000	0.0000000E+000	-58.7469	0.0000000E+000	0.0000000E+000	0.0000000E+000	-31.2531	0.0000000E+000	0.0000000E+000	0.0000000E+000	31.2531	1.64775	58.7469
0.433065	560.747	339.326	655.423	-31.1795	09/05/2018 15:25:54.8720	-0.125469	4.97653e-05	1083.05	290.296	1	13	0.0210816	3.21649e-05	0.00130534	0.000789904	0.00152573	31.1795	290296	479723	560719	-58.8205	0.0000000E+000	0.0000000E+000	0.0000000E+000	58.8205	0.0000000E+000	0.0000000E+000	0.0000000E+000	-58.8205	0.0000000E+000	0.0000000E+000	0.0000000E+000	-31.1795	0.0000000E+000	0.0000000E+000	0.0000000E+000	31.1795	1.65253	58.8205
0.323901	616.273	371.486	719.579	-31.0813	09/05/2018 15:26:19.6498	-0.125466	3.54617e-05	1322.71	352.527	1	13	0.021084	2.93005e-05	0.00119019	0.00071744	0.0013897	31.0813	352528	584822	682856	-58.9187	0.0000000E+000	0.0000000E+000	0.0000000E+000	58.9187	0.0000000E+000	0.0000000E+000	0.0000000E+000	-58.9187	0.0000000E+000	0.0000000E+000	0.0000000E+000	-31.0813	0.0000000E+000	0.0000000E+000	0.0000000E+000	31.0813	1.65894	58.9187
0.242323	669.24	406.479	783.011	-31.2734	09/05/2018 15:26:52.7482	-0.125465	3.3654e-05	1615.8	435.439	1	13	0.0210849	2.6928e-05	0.00109155	0.000662982	0.00127712	31.2734	435439	716920	838797	-58.7266	0.0000000E+000	0.0000000E+000	0.0000000E+000	58.7266	0.0000000E+000	0.0000000E+000	0.0000000E+000	-58.7266	0.0000000E+000	0.0000000E+000	0.0000000E+000	-31.2734	0.0000000E+000	0.0000000E+000	0.0000000E+000	31.2734	1.64643	58.7266
0.181534	715.345	450.134	845.185	-32.1803	09/05/2018 15:27:36.9093	-0.125465	2.71409e-05	1947.69	552.458	1	13	0.0210845	2.49466e-05	0.00100141	0.000630141	0.00118317	32.1803	552458	877957	1.03731e+06	-57.8197	0.0000000E+000	0.0000000E+000	0.0000000E+000	57.8197	0.0000000E+000	0.0000000E+000	0.0000000E+000	-57.8197	0.0000000E+000	0.0000000E+000	0.0000000E+000	-32.1803	0.0000000E+000	0.0000000E+000	0.0000000E+000	32.1803	1.58918	57.8197
0.135846	753.363	511.92	910.833	-34.1966	09/05/2018 15:28:35.9018	-0.125462	2.59506e-05	2288.61	722.932	1	13	0.0210855	2.31497e-05	0.000908085	0.000617055	0.0010979	34.1966	722932	1.0639e+06	1.28628e+06	-55.8034	0.0000000E+000	0.0000000E+000	0.0000000E+000	55.8034	0.0000000E+000	0.0000000E+000	0.0000000E+000	-55.8034	0.0000000E+000	0.0000000E+000	0.0000000E+000	-34.1966	0.0000000E+000	0.0000000E+000	0.0000000E+000	34.1966	1.47164	55.8034
0.101725	783.253	602.488	988.169	-37.5679	09/05/2018 15:29:54.6607	-0.125459	2.47273e-05	2596.83	965.334	1	13	0.0210845	2.1337e-05	0.000802121	0.000617002	0.00101197	37.5679	965334	1.25496e+06	1.58329e+06	-52.4321	0.0000000E+000	0.0000000E+000	0.0000000E+000	52.4321	0.0000000E+000	0.0000000E+000	0.0000000E+000	-52.4321	0.0000000E+000	0.0000000E+000	0.0000000E+000	-37.5679	0.0000000E+000	0.0000000E+000	0.0000000E+000	37.5679	1.30003	52.4321
0.0761037	807.615	733.832	1091.22	-42.2595	09/05/2018 15:31:39.9146	-0.125465	2.32286e-05	2849.82	1288.81	1	13	0.0210847	1.93222e-05	0.00067824	0.000616276	0.000916409	42.2595	1.28881e+06	1.4184e+06	1.91648e+06	-47.7405	0.0000000E+000	0.0000000E+000	0.0000000E+000	47.7405	0.0000000E+000	0.0000000E+000	0.0000000E+000	-47.7405	0.0000000E+000	0.0000000E+000	0.0000000E+000	-42.2595	0.0000000E+000	0.0000000E+000	0.0000000E+000	42.2595	1.10055	47.7404
0.0569665	828.198	918.281	1236.59	-47.9527	09/05/2018 15:34:00.5065	-0.125471	6.83501e-06	3042.46	1677.74	1	13	0.0210814	1.7048e-05	0.000541606	0.000600516	0.000808676	47.9527	1.67774e+06	1.51316e+06	2.25931e+06	-42.0473	0.0000000E+000	0.0000000E+000	0.0000000E+000	42.0473	0.0000000E+000	0.0000000E+000	0.0000000E+000	-42.0473	0.0000000E+000	0.0000000E+000	0.0000000E+000	-47.9527	0.0000000E+000	0.0000000E+000	0.0000000E+000	47.9527	0.901901	42.0473
0.0426446	848.682	1173.81	1448.48	-54.1324	09/05/2018 15:37:08.2947	-0.125464	8.16125e-06	3179.5	2088	1	13	0.0210828	1.45551e-05	0.000404504	0.000559466	0.000690381	54.1324	2.088e+06	1.50966e+06	2.57659e+06	-35.8676	0.0000000E+000	0.0000000E+000	0.0000000E+000	35.8676	0.0000000E+000	0.0000000E+000	0.0000000E+000	-35.8676	0.0000000E+000	0.0000000E+000	0.0000000E+000	-54.1324	0.0000000E+000	0.0000000E+000	0.0000000E+000	54.1324	0.723017	35.8676
0.0319138	868.878	1520.28	1751.05	-60.2509	09/05/2018 15:41:19.2049	-0.125464	1.05965e-05	3280.34	2472.66	1	13	0.0210847	1.20411e-05	0.000283374	0.000495819	0.000571084	60.2509	2.47266e+06	1.41319e+06	2.84801e+06	-29.7491	0.0000000E+000	0.0000000E+000	0.0000000E+000	29.7491	0.0000000E+000	0.0000000E+000	0.0000000E+000	-29.7491	0.0000000E+000	0.0000000E+000	0.0000000E+000	-60.2509	0.0000000E+000	0.0000000E+000	0.0000000E+000	60.2509	0.571526	29.7491
0.0238768	893.949	1989.75	2181.34	-65.8067	09/05/2018 15:46:54.5517	-0.125461	1.43483e-05	3350.01	2787.38	1	13	0.0210843	9.66577e-06	0.000187874	0.000418169	0.000458435	65.8067	2.78738e+06	1.25231e+06	3.05577e+06	-24.1933	0.0000000E+000	0.0000000E+000	0.0000000E+000	24.1933	0.0000000E+000	0.0000000E+000	0.0000000E+000	-24.1933	0.0000000E+000	0.0000000E+000	0.0000000E+000	-65.8067	0.0000000E+000	0.0000000E+000	0.0000000E+000	65.8067	0.449278	24.1933
0.0178412	924.61	2622.07	2780.32	-70.576	09/05/2018 15:54:23.3253	-0.125467	2.36574e-05	3402.14	3025.89	1	13	0.0210841	7.58334e-06	0.000119611	0.0003392	0.000359671	70.576	3.02589e+06	1.06701e+06	3.20851e+06	-19.424	0.0000000E+000	0.0000000E+000	0.0000000E+000	19.424	0.0000000E+000	0.0000000E+000	0.0000000E+000	-19.424	0.0000000E+000	0.0000000E+000	0.0000000E+000	-70.576	0.0000000E+000	0.0000000E+000	0.0000000E+000	70.576	0.352626	19.424
0.0133776	962.722	3452.88	3584.58	-74.4206	09/05/2018 16:04:21.8179	-0.125467	2.31488e-05	3445.57	3197.04	1	13	0.0210838	5.88181e-06	7.49246e-05	0.000268723	0.000278973	74.4206	3.19704e+06	891389	3.31898e+06	-15.5794	0.0000000E+000	0.0000000E+000	0.0000000E+000	15.5794	0.0000000E+000	0.0000000E+000	0.0000000E+000	-15.5794	0.0000000E+000	0.0000000E+000	0.0000000E+000	-74.4206	0.0000000E+000	0.0000000E+000	0.0000000E+000	74.4206	0.278817	15.5794
0.0100058	1012.7	4564.26	4675.26	-77.49	09/05/2018 16:19:22.0793	-0.12546	1.45711e-06	3484.98	3321.46	1	14	0.0210853	4.50997e-06	4.6331e-05	0.000208814	0.000213892	77.49	3.32146e+06	736956	3.40224e+06	-12.51	0.0000000E+000	0.0000000E+000	0.0000000E+000	12.51	0.0000000E+000	0.0000000E+000	0.0000000E+000	-12.51	0.0000000E+000	0.0000000E+000	0.0000000E+000	-77.49	0.0000000E+000	0.0000000E+000	0.0000000E+000	77.49	0.221877	12.51