File: exp data/EIS mpt files/two combined/RM_stacked second run DS_12+3_1_C07.mpt
EC-Lab ASCII FILE
Nb header lines : 66

Potentio Electrochemical Impedance Spectroscopy

Run on channel : 7 (SN 13829)
User :
CE vs. WE compliance from -10 V to 10 V
Electrode connection : standard
Potential control : Ewe
Ewe ctrl range : min = -1.00 V, max = 1.00 V
Safety Limits :
	Do not start on E overload
Acquisition started on : 09/05/2018 15:23:59.000
Loaded Setting File : NONE
Saved on :
	File : RM_stacked second run DS_12+3_1_C07.mpr
	Directory : D:\Robert\Stacked cells\Second run 3% and 12% PVDF electrodes 12%compressed\
	Host : 10.5.5.6
Device : VMP3 (SN 0628)
Address : 10.5.5.5
EC-Lab for windows v11.17 (software)
Internet server v11.16 (firmware)
Command interpretor v11.16 (firmware)
Electrode material :
Initial state :
Electrolyte :
Comments :
Electrode surface area : 0.001 cm²
Characteristic mass : 0.001 g
Equivalent Weight : 0.000 g/eq.
Density : 0.000 g/cm3
Volume (V) : 0.000 m³
Text export
   Mode : Standard
   Time format : Elapsed
Cycle Definition : Charge/Discharge alternance
Mode                Single sine
E (V)               0.0000
vs.                 Eoc
tE (h:m:s)          0:00:3.0000
record              1
dI                  0.000
unit dI             mA
dt (s)              60.000
fi                  200.000
unit fi             kHz
ff                  8.000
unit ff             mHz
Nd                  8
Points              per decade
spacing             Logarithmic
Va (mV)             20.0
pw                  3.00
Na                  5
corr                0
E range min (V)     -1.000
E range max (V)     1.000
I Range             Auto
Bandwidth           5
nc cycles           0
goto Ns'            0
nr cycles           0
inc. cycle          0

freq/Hz	Re(Z)/Ohm	-Im(Z)/Ohm	|Z|/Ohm	Phase(Z)/deg	time/s	<Ewe>/V	<I>/mA	Cs/µF	Cp/µF	cycle number	I Range	|Ewe|/V	|I|/A	Re(Y)/Ohm-1	Im(Y)/Ohm-1	|Y|/Ohm-1	Phase(Y)/deg	Re(C)/nF	Im(C)/nF	|C|/nF	Phase(C)/deg	Re(M)	Im(M)	|M|	Phase(M)/deg	Re(Permittivity)	Im(Permittivity)	|Permittivity|	Phase(Permittivity)/deg	Re(Resistivity)/Ohm.cm	Im(Resistivity)/Ohm.cm	|Resistivity|/Ohm.cm	Phase(Resistivity)/deg	Re(Conductivity)/mS/cm	Im(Conductivity)/mS/cm	|Conductivity|/mS/cm	Phase(Conductivity)/deg	Tan(Delta)	Loss Angle(Delta)/deg
200019	157.562	2.37999	157.58	-0.865392	09/05/2018 15:24:04.3311	-0.0237588	0.00448962	0.334328	7.62641e-05	1	11	0.0179661	0.000114012	0.00634526	9.58456e-05	0.00634598	0.865392	0.0762644	5.0489	5.04948	-89.1346	0.0000000E+000	0.0000000E+000	0.0000000E+000	89.1346	0.0000000E+000	0.0000000E+000	0.0000000E+000	-89.1346	0.0000000E+000	0.0000000E+000	0.0000000E+000	-0.865392	0.0000000E+000	0.0000000E+000	0.0000000E+000	0.865392	66.2029	89.1346
149844	157.059	2.4359	157.078	-0.888554	09/05/2018 15:24:05.3961	-0.0241115	0.00239707	0.436037	0.00010486	1	11	0.0205082	0.000130561	0.00636551	9.87254e-05	0.00636627	0.888554	0.104861	6.76106	6.76187	-89.1114	0.0000000E+000	0.0000000E+000	0.0000000E+000	89.1114	0.0000000E+000	0.0000000E+000	0.0000000E+000	-89.1114	0.0000000E+000	0.0000000E+000	0.0000000E+000	-0.888554	0.0000000E+000	0.0000000E+000	0.0000000E+000	0.888554	64.4769	89.1114
112266	156.891	2.60672	156.912	-0.951875	09/05/2018 15:24:06.4611	-0.0240861	0.0024491	0.54385	0.000150091	1	11	0.0207357	0.000132148	0.00637211	0.000105872	0.00637299	0.951875	0.15009	9.03351	9.03476	-89.0481	0.0000000E+000	0.0000000E+000	0.0000000E+000	89.0481	0.0000000E+000	0.0000000E+000	0.0000000E+000	-89.0481	0.0000000E+000	0.0000000E+000	0.0000000E+000	-0.951875	0.0000000E+000	0.0000000E+000	0.0000000E+000	0.951875	60.187	89.0481
84111.3	157.067	2.8705	157.093	-1.047	09/05/2018 15:24:07.5241	-0.024087	0.00244052	0.659186	0.000220094	1	11	0.0207024	0.000131784	0.00636458	0.000116317	0.00636564	1.047	0.220093	12.043	12.045	-88.953	0.0000000E+000	0.0000000E+000	0.0000000E+000	88.953	0.0000000E+000	0.0000000E+000	0.0000000E+000	-88.953	0.0000000E+000	0.0000000E+000	0.0000000E+000	-1.047	0.0000000E+000	0.0000000E+000	0.0000000E+000	1.047	54.7177	88.953
63017.6	157.418	3.17003	157.45	-1.15365	09/05/2018 15:24:08.5891	-0.0240872	0.00250933	0.7967	0.000322952	1	11	0.0205793	0.000130704	0.00634995	0.000127873	0.00635123	1.15365	0.322952	16.0372	16.0404	-88.8464	0.0000000E+000	0.0000000E+000	0.0000000E+000	88.8464	0.0000000E+000	0.0000000E+000	0.0000000E+000	-88.8464	0.0000000E+000	0.0000000E+000	0.0000000E+000	-1.15365	0.0000000E+000	0.0000000E+000	0.0000000E+000	1.15365	49.6581	88.8464
47216.8	157.982	3.38933	158.018	-1.22903	09/05/2018 15:24:09.6541	-0.0240815	0.00244183	0.994512	0.000457536	1	11	0.020531	0.000129928	0.00632694	0.000135738	0.0063284	1.22903	0.457536	21.3264	21.3313	-88.771	0.0000000E+000	0.0000000E+000	0.0000000E+000	88.771	0.0000000E+000	0.0000000E+000	0.0000000E+000	-88.771	0.0000000E+000	0.0000000E+000	0.0000000E+000	-1.22903	0.0000000E+000	0.0000000E+000	0.0000000E+000	1.22903	46.6115	88.771
35371.1	158.663	3.49522	158.701	-1.26198	09/05/2018 15:24:10.7191	-0.0241009	0.00240901	1.28735	0.000624433	1	11	0.0203693	0.00012835	0.00629962	0.000138776	0.00630115	1.26198	0.624432	28.3456	28.3525	-88.738	0.0000000E+000	0.0000000E+000	0.0000000E+000	88.738	0.0000000E+000	0.0000000E+000	0.0000000E+000	-88.738	0.0000000E+000	0.0000000E+000	0.0000000E+000	-1.26198	0.0000000E+000	0.0000000E+000	0.0000000E+000	1.26198	45.3942	88.738
26503.9	159.323	3.52393	159.362	-1.26707	09/05/2018 15:24:11.7831	-0.0240934	0.00248695	1.70405	0.000833235	1	11	0.0203031	0.000127402	0.00627348	0.000138758	0.00627502	1.26707	0.833234	37.672	37.6813	-88.7329	0.0000000E+000	0.0000000E+000	0.0000000E+000	88.7329	0.0000000E+000	0.0000000E+000	0.0000000E+000	-88.7329	0.0000000E+000	0.0000000E+000	0.0000000E+000	-1.26707	0.0000000E+000	0.0000000E+000	0.0000000E+000	1.26707	45.2118	88.7329
19853.5	160.011	3.52666	160.05	-1.2626	09/05/2018 15:24:12.7221	-0.0240842	0.00241703	2.2731	0.00110366	1	11	0.0218616	0.000136592	0.00624653	0.000137674	0.00624804	1.2626	1.10366	50.0751	50.0872	-88.7374	0.0000000E+000	0.0000000E+000	0.0000000E+000	88.7374	0.0000000E+000	0.0000000E+000	0.0000000E+000	-88.7374	0.0000000E+000	0.0000000E+000	0.0000000E+000	-1.2626	0.0000000E+000	0.0000000E+000	0.0000000E+000	1.2626	45.3719	88.7374
14873	160.57	3.4982	160.608	-1.24806	09/05/2018 15:24:13.7861	-0.0240798	0.00249366	3.05897	0.00145121	1	11	0.0202688	0.0001262	0.00622485	0.000135616	0.00622633	1.24806	1.45121	66.6115	66.6273	-88.7519	0.0000000E+000	0.0000000E+000	0.0000000E+000	88.7519	0.0000000E+000	0.0000000E+000	0.0000000E+000	-88.7519	0.0000000E+000	0.0000000E+000	0.0000000E+000	-1.24806	0.0000000E+000	0.0000000E+000	0.0000000E+000	1.24806	45.9007	88.7519
11142.6	161.132	3.49718	161.17	-1.24334	09/05/2018 15:24:14.7251	-0.0240861	0.00233983	4.08429	0.00192302	1	11	0.020842	0.000129317	0.00620317	0.000134632	0.00620463	1.24334	1.92302	88.603	88.6238	-88.7567	0.0000000E+000	0.0000000E+000	0.0000000E+000	88.7567	0.0000000E+000	0.0000000E+000	0.0000000E+000	-88.7567	0.0000000E+000	0.0000000E+000	0.0000000E+000	-1.24334	0.0000000E+000	0.0000000E+000	0.0000000E+000	1.24334	46.0748	88.7567
8412.83	161.648	3.59962	161.688	-1.27567	09/05/2018 15:24:15.8053	-0.0240683	0.00253152	5.25559	0.00260483	1	11	0.0211758	0.000130967	0.00618322	0.00013769	0.00618475	1.27567	2.60483	116.975	117.004	-88.7243	0.0000000E+000	0.0000000E+000	0.0000000E+000	88.7243	0.0000000E+000	0.0000000E+000	0.0000000E+000	-88.7243	0.0000000E+000	0.0000000E+000	0.0000000E+000	-1.27567	0.0000000E+000	0.0000000E+000	0.0000000E+000	1.27567	44.9069	88.7243
6295.45	162.12	3.70825	162.162	-1.31033	09/05/2018 15:24:17.2035	-0.0240893	0.00229377	6.81749	0.00356503	1	11	0.0213745	0.000131809	0.00616505	0.000141016	0.00616666	1.31033	3.56502	155.858	155.899	-88.6897	0.0000000E+000	0.0000000E+000	0.0000000E+000	88.6897	0.0000000E+000	0.0000000E+000	0.0000000E+000	-88.6897	0.0000000E+000	0.0000000E+000	0.0000000E+000	-1.31033	0.0000000E+000	0.0000000E+000	0.0000000E+000	1.31033	43.7187	88.6897
4685.5	162.766	3.92498	162.813	-1.38137	09/05/2018 15:24:18.8939	-0.0240809	0.00237395	8.65421	0.00502945	1	11	0.0214925	0.000132007	0.00614021	0.000148066	0.006142	1.38137	5.02946	208.568	208.629	-88.6186	0.0000000E+000	0.0000000E+000	0.0000000E+000	88.6186	0.0000000E+000	0.0000000E+000	0.0000000E+000	-88.6186	0.0000000E+000	0.0000000E+000	0.0000000E+000	-1.38137	0.0000000E+000	0.0000000E+000	0.0000000E+000	1.38137	41.4693	88.6186
3511.12	163.327	4.25805	163.382	-1.49341	09/05/2018 15:24:20.5817	-0.0240915	0.00229508	10.6454	0.00723062	1	11	0.0215549	0.000131929	0.00611854	0.000159515	0.00612062	1.49341	7.23063	277.346	277.44	-88.5066	0.0000000E+000	0.0000000E+000	0.0000000E+000	88.5066	0.0000000E+000	0.0000000E+000	0.0000000E+000	-88.5066	0.0000000E+000	0.0000000E+000	0.0000000E+000	-1.49341	0.0000000E+000	0.0000000E+000	0.0000000E+000	1.49341	38.3571	88.5066
2630.84	163.947	4.65033	164.013	-1.62475	09/05/2018 15:24:22.2687	-0.0240801	0.00235363	13.0089	0.0104581	1	11	0.0215837	0.000131597	0.00609464	0.000172874	0.00609709	1.62475	10.4581	368.7	368.848	-88.3753	0.0000000E+000	0.0000000E+000	0.0000000E+000	88.3753	0.0000000E+000	0.0000000E+000	0.0000000E+000	-88.3753	0.0000000E+000	0.0000000E+000	0.0000000E+000	-1.62475	0.0000000E+000	0.0000000E+000	0.0000000E+000	1.62475	35.2549	88.3753
1970.63	164.692	5.15105	164.773	-1.79145	09/05/2018 15:24:23.9557	-0.024081	0.00230571	15.679	0.0153229	1	11	0.0216068	0.000131131	0.006066	0.000189725	0.00606897	1.79145	15.3229	489.911	490.151	-88.2085	0.0000000E+000	0.0000000E+000	0.0000000E+000	88.2085	0.0000000E+000	0.0000000E+000	0.0000000E+000	-88.2085	0.0000000E+000	0.0000000E+000	0.0000000E+000	-1.79145	0.0000000E+000	0.0000000E+000	0.0000000E+000	1.79145	31.9725	88.2085
1477.36	165.46	5.77844	165.561	-2.00016	09/05/2018 15:24:25.6424	-0.0240885	0.0022617	18.6433	0.0227106	1	11	0.021613	0.000130545	0.0060364	0.000210813	0.00604008	2.00016	22.7107	650.296	650.692	-87.9998	0.0000000E+000	0.0000000E+000	0.0000000E+000	87.9998	0.0000000E+000	0.0000000E+000	0.0000000E+000	-87.9998	0.0000000E+000	0.0000000E+000	0.0000000E+000	-2.00016	0.0000000E+000	0.0000000E+000	0.0000000E+000	2.00016	28.634	87.9998
1106.77	166.358	6.49864	166.484	-2.23708	09/05/2018 15:24:27.3264	-0.0240904	0.00226543	22.1279	0.0337161	1	11	0.0216175	0.000129847	0.00600199	0.000234464	0.00600657	2.23708	33.7162	863.093	863.752	-87.7629	0.0000000E+000	0.0000000E+000	0.0000000E+000	87.7629	0.0000000E+000	0.0000000E+000	0.0000000E+000	-87.7629	0.0000000E+000	0.0000000E+000	0.0000000E+000	-2.23708	0.0000000E+000	0.0000000E+000	0.0000000E+000	2.23708	25.5988	87.7629
829.203	167.373	7.3312	167.534	-2.50804	09/05/2018 15:24:29.0150	-0.0240859	0.00228911	26.1808	0.0501337	1	11	0.0216209	0.000129054	0.00596323	0.000261199	0.00596895	2.50804	50.1337	1144.57	1145.66	-87.492	0.0000000E+000	0.0000000E+000	0.0000000E+000	87.492	0.0000000E+000	0.0000000E+000	0.0000000E+000	-87.492	0.0000000E+000	0.0000000E+000	0.0000000E+000	-2.50804	0.0000000E+000	0.0000000E+000	0.0000000E+000	2.50804	22.8303	87.492
620.993	168.512	8.33783	168.719	-2.83263	09/05/2018 15:24:30.7004	-0.0240952	0.00221583	30.7383	0.0750689	1	11	0.0216222	0.000128155	0.00591979	0.000292905	0.00592703	2.83263	75.0689	1517.19	1519.04	-87.1674	0.0000000E+000	0.0000000E+000	0.0000000E+000	87.1674	0.0000000E+000	0.0000000E+000	0.0000000E+000	-87.1674	0.0000000E+000	0.0000000E+000	0.0000000E+000	-2.83263	0.0000000E+000	0.0000000E+000	0.0000000E+000	2.83263	20.2106	87.1674
465.149	169.814	9.53286	170.082	-3.21304	09/05/2018 15:24:32.3877	-0.0240877	0.00223895	35.8926	0.112755	1	11	0.0216243	0.000127141	0.00587028	0.00032954	0.00587952	3.21304	112.755	2008.57	2011.73	-86.787	0.0000000E+000	0.0000000E+000	0.0000000E+000	86.787	0.0000000E+000	0.0000000E+000	0.0000000E+000	-86.787	0.0000000E+000	0.0000000E+000	0.0000000E+000	-3.21304	0.0000000E+000	0.0000000E+000	0.0000000E+000	3.21304	17.8136	86.787
348.772	171.278	10.8893	171.624	-3.63776	09/05/2018 15:24:34.0825	-0.0240895	0.00222552	41.9064	0.168702	1	11	0.0216227	0.000125989	0.00581494	0.000369693	0.00582668	3.63776	168.702	2653.53	2658.89	-86.3622	0.0000000E+000	0.0000000E+000	0.0000000E+000	86.3622	0.0000000E+000	0.0000000E+000	0.0000000E+000	-86.3622	0.0000000E+000	0.0000000E+000	0.0000000E+000	-3.63776	0.0000000E+000	0.0000000E+000	0.0000000E+000	3.63776	15.7291	86.3622
261.422	172.926	12.4784	173.375	-4.12735	09/05/2018 15:24:35.7616	-0.024085	0.0022589	48.7885	0.252733	1	11	0.0216225	0.000124715	0.00575287	0.000415131	0.00576783	4.12735	252.734	3502.37	3511.48	-85.8726	0.0000000E+000	0.0000000E+000	0.0000000E+000	85.8726	0.0000000E+000	0.0000000E+000	0.0000000E+000	-85.8726	0.0000000E+000	0.0000000E+000	0.0000000E+000	-4.12735	0.0000000E+000	0.0000000E+000	0.0000000E+000	4.12735	13.858	85.8726
195.815	174.919	14.3676	175.508	-4.69566	09/05/2018 15:24:37.4429	-0.0240922	0.00219289	56.5705	0.379111	1	11	0.0216255	0.000123216	0.00567862	0.000466435	0.00569774	4.69566	379.111	4615.49	4631.03	-85.3043	0.0000000E+000	0.0000000E+000	0.0000000E+000	85.3043	0.0000000E+000	0.0000000E+000	0.0000000E+000	-85.3043	0.0000000E+000	0.0000000E+000	0.0000000E+000	-4.69566	0.0000000E+000	0.0000000E+000	0.0000000E+000	4.69566	12.1745	85.3043
146.737	177.071	16.5799	177.845	-5.34926	09/05/2018 15:24:39.1124	-0.0240896	0.00219886	65.418	0.568562	1	11	0.0216216	0.000121575	0.00559838	0.000524201	0.00562287	5.34926	568.562	6072.15	6098.71	-84.6507	0.0000000E+000	0.0000000E+000	0.0000000E+000	84.6507	0.0000000E+000	0.0000000E+000	0.0000000E+000	-84.6507	0.0000000E+000	0.0000000E+000	0.0000000E+000	-5.34926	0.0000000E+000	0.0000000E+000	0.0000000E+000	5.34926	10.6798	84.6507
109.894	179.659	19.0359	180.664	-6.04826	09/05/2018 15:24:40.8009	-0.0240823	0.00221229	76.08	0.844642	1	11	0.0216236	0.00011969	0.00550431	0.000583215	0.00553512	6.04826	844.642	7971.63	8016.26	-83.9517	0.0000000E+000	0.0000000E+000	0.0000000E+000	83.9517	0.0000000E+000	0.0000000E+000	0.0000000E+000	-83.9517	0.0000000E+000	0.0000000E+000	0.0000000E+000	-6.04826	0.0000000E+000	0.0000000E+000	0.0000000E+000	6.04826	9.43789	83.9517
82.3451	182.592	22.0232	183.915	-6.87745	09/05/2018 15:24:42.4421	-0.0240897	0.00223205	87.7612	1.25842	1	11	0.0216176	0.000117541	0.00539816	0.000651093	0.00543728	6.87745	1258.42	10433.4	10509.1	-83.1226	0.0000000E+000	0.0000000E+000	0.0000000E+000	83.1226	0.0000000E+000	0.0000000E+000	0.0000000E+000	-83.1226	0.0000000E+000	0.0000000E+000	0.0000000E+000	-6.87745	0.0000000E+000	0.0000000E+000	0.0000000E+000	6.87745	8.29091	83.1226
61.6776	186.088	25.4327	187.818	-7.78241	09/05/2018 15:24:44.0873	-0.0240913	0.00217201	101.461	1.86042	1	11	0.0216221	0.000115123	0.00527527	0.000720972	0.00532431	7.78241	1860.42	13612.5	13739	-82.2176	0.0000000E+000	0.0000000E+000	0.0000000E+000	82.2176	0.0000000E+000	0.0000000E+000	0.0000000E+000	-82.2176	0.0000000E+000	0.0000000E+000	0.0000000E+000	-7.78241	0.0000000E+000	0.0000000E+000	0.0000000E+000	7.78241	7.31689	82.2176
46.1974	190.159	29.2955	192.402	-8.75802	09/05/2018 15:24:45.9766	-0.0240969	0.00020846	117.598	2.72636	1	12	0.0216318	0.00011243	0.00513684	0.000791371	0.00519744	8.75802	2726.36	17696.9	17905.7	-81.242	0.0000000E+000	0.0000000E+000	0.0000000E+000	81.242	0.0000000E+000	0.0000000E+000	0.0000000E+000	-81.242	0.0000000E+000	0.0000000E+000	0.0000000E+000	-8.75802	0.0000000E+000	0.0000000E+000	0.0000000E+000	8.75802	6.49106	81.242
34.6123	194.804	33.747	197.705	-9.82813	09/05/2018 15:24:47.6820	-0.0240866	0.000228699	136.256	3.96997	1	12	0.0216296	0.000109403	0.0049838	0.000863371	0.00505803	9.82813	3969.97	22916.6	23257.9	-80.1719	0.0000000E+000	0.0000000E+000	0.0000000E+000	80.1719	0.0000000E+000	0.0000000E+000	0.0000000E+000	-80.1719	0.0000000E+000	0.0000000E+000	0.0000000E+000	-9.82813	0.0000000E+000	0.0000000E+000	0.0000000E+000	9.82813	5.77249	80.1719
25.9379	200.193	38.8615	203.93	-10.9856	09/05/2018 15:24:49.3125	-0.0240885	0.000216201	157.894	5.7338	1	12	0.0216274	0.000106053	0.00481378	0.000934453	0.00490364	10.9856	5733.8	29537.4	30088.7	-79.0144	0.0000000E+000	0.0000000E+000	0.0000000E+000	79.0144	0.0000000E+000	0.0000000E+000	0.0000000E+000	-79.0144	0.0000000E+000	0.0000000E+000	0.0000000E+000	-10.9856	0.0000000E+000	0.0000000E+000	0.0000000E+000	10.9856	5.15145	79.0144
19.4341	206.387	44.6596	211.163	-12.2099	09/05/2018 15:24:51.0476	-0.0240922	0.000210782	183.376	8.20227	1	12	0.0216276	0.000102421	0.00462855	0.00100156	0.00473567	12.2099	8202.27	37905.4	38782.7	-77.7901	0.0000000E+000	0.0000000E+000	0.0000000E+000	77.7901	0.0000000E+000	0.0000000E+000	0.0000000E+000	-77.7901	0.0000000E+000	0.0000000E+000	0.0000000E+000	-12.2099	0.0000000E+000	0.0000000E+000	0.0000000E+000	12.2099	4.62133	77.7901
14.5756	213.496	51.3068	219.575	-13.5129	09/05/2018 15:24:52.7816	-0.0240907	0.000199002	212.824	11.62	1	12	0.0216256	9.84886e-05	0.00442819	0.00106417	0.00455426	13.5129	11620	48352.7	49729.4	-76.4871	0.0000000E+000	0.0000000E+000	0.0000000E+000	76.4871	0.0000000E+000	0.0000000E+000	0.0000000E+000	-76.4871	0.0000000E+000	0.0000000E+000	0.0000000E+000	-13.5129	0.0000000E+000	0.0000000E+000	0.0000000E+000	13.5129	4.16117	76.4871
10.9113	221.686	58.9272	229.384	-14.8858	09/05/2018 15:24:54.3370	-0.024096	0.000177028	247.53	16.3355	1	12	0.0216245	9.4272e-05	0.0042132	0.00111993	0.00435951	14.8858	16335.5	61454.7	63588.8	-75.1142	0.0000000E+000	0.0000000E+000	0.0000000E+000	75.1142	0.0000000E+000	0.0000000E+000	0.0000000E+000	-75.1142	0.0000000E+000	0.0000000E+000	0.0000000E+000	-14.8858	0.0000000E+000	0.0000000E+000	0.0000000E+000	14.8858	3.76203	75.1142
8.17207	231.098	67.5394	240.765	-16.2912	09/05/2018 15:24:56.3795	-0.0240885	0.000180199	288.357	22.6912	1	12	0.0216195	8.97949e-05	0.00398666	0.00116512	0.00415342	16.2912	22691.2	77642.1	80889.9	-73.7088	0.0000000E+000	0.0000000E+000	0.0000000E+000	73.7088	0.0000000E+000	0.0000000E+000	0.0000000E+000	-73.7088	0.0000000E+000	0.0000000E+000	0.0000000E+000	-16.2912	0.0000000E+000	0.0000000E+000	0.0000000E+000	16.2912	3.42168	73.7088
6.12265	242.026	77.453	254.117	-17.7457	09/05/2018 15:24:57.7790	-0.0240924	0.000217823	335.616	31.1781	1	12	0.0216229	8.50903e-05	0.00374795	0.00119942	0.00393519	17.7457	31178.2	97425.9	102293	-72.2543	0.0000000E+000	0.0000000E+000	0.0000000E+000	72.2543	0.0000000E+000	0.0000000E+000	0.0000000E+000	-72.2543	0.0000000E+000	0.0000000E+000	0.0000000E+000	-17.7457	0.0000000E+000	0.0000000E+000	0.0000000E+000	17.7457	3.12481	72.2543
4.5848	254.287	88.854	269.364	-19.2606	09/05/2018 15:24:59.6119	-0.0240904	0.000245085	390.682	42.5106	1	12	0.0216198	8.02624e-05	0.00350465	0.00122461	0.00371245	19.2606	42510.6	121659	128872	-70.7394	0.0000000E+000	0.0000000E+000	0.0000000E+000	70.7394	0.0000000E+000	0.0000000E+000	0.0000000E+000	-70.7394	0.0000000E+000	0.0000000E+000	0.0000000E+000	-19.2606	0.0000000E+000	0.0000000E+000	0.0000000E+000	19.2606	2.86186	70.7394
3.4386	268.394	101.843	287.067	-20.7795	09/05/2018 15:25:02.0196	-0.0240846	0.000228204	454.471	57.2012	1	12	0.0216168	7.53023e-05	0.00325692	0.00123585	0.00348351	20.7795	57201.2	150746	161234	-69.2205	0.0000000E+000	0.0000000E+000	0.0000000E+000	69.2205	0.0000000E+000	0.0000000E+000	0.0000000E+000	-69.2205	0.0000000E+000	0.0000000E+000	0.0000000E+000	-20.7795	0.0000000E+000	0.0000000E+000	0.0000000E+000	20.7795	2.63536	69.2205
2.57329	284.645	116.847	307.695	-22.3181	09/05/2018 15:25:05.2074	-0.0240806	0.000184112	529.316	76.3322	1	12	0.0216221	7.02712e-05	0.00300652	0.00123417	0.00324997	22.3181	76332.2	185950	201007	-67.6819	0.0000000E+000	0.0000000E+000	0.0000000E+000	67.6819	0.0000000E+000	0.0000000E+000	0.0000000E+000	-67.6819	0.0000000E+000	0.0000000E+000	0.0000000E+000	-22.3181	0.0000000E+000	0.0000000E+000	0.0000000E+000	22.3181	2.43606	67.6819
1.92901	303.037	133.925	331.312	-23.8426	09/05/2018 15:25:09.4304	-0.0240793	0.000220406	616.062	100.664	1	12	0.0216209	6.52583e-05	0.00276072	0.00122008	0.00301831	23.8426	100664	227776	249028	-66.1574	0.0000000E+000	0.0000000E+000	0.0000000E+000	66.1574	0.0000000E+000	0.0000000E+000	0.0000000E+000	-66.1574	0.0000000E+000	0.0000000E+000	0.0000000E+000	-23.8426	0.0000000E+000	0.0000000E+000	0.0000000E+000	23.8426	2.26274	66.1574
1.44676	324.112	153.524	358.634	-25.3458	09/05/2018 15:25:15.0363	-0.0240807	0.000260466	716.551	131.31	1	12	0.0216187	6.02807e-05	0.00251996	0.00119364	0.00278836	25.3458	131310	277215	306742	-64.6542	0.0000000E+000	0.0000000E+000	0.0000000E+000	64.6542	0.0000000E+000	0.0000000E+000	0.0000000E+000	-64.6542	0.0000000E+000	0.0000000E+000	0.0000000E+000	-25.3458	0.0000000E+000	0.0000000E+000	0.0000000E+000	25.3458	2.11114	64.6542
1.08236	348.44	176.458	390.573	-26.8587	09/05/2018 15:25:22.5022	-0.0240751	0.000253736	833.308	170.092	1	12	0.0216197	5.53538e-05	0.00228414	0.00115674	0.00256034	26.8587	170092	335868	376482	-63.1413	0.0000000E+000	0.0000000E+000	0.0000000E+000	63.1413	0.0000000E+000	0.0000000E+000	0.0000000E+000	-63.1413	0.0000000E+000	0.0000000E+000	0.0000000E+000	-26.8587	0.0000000E+000	0.0000000E+000	0.0000000E+000	26.8587	1.97463	63.1413
0.811773	376.258	202.425	427.254	-28.28	09/05/2018 15:25:32.4302	-0.0240771	0.000249284	968.55	217.408	1	12	0.0216205	5.06033e-05	0.00206117	0.0011089	0.00234053	28.28	217408	404110	458880	-61.72	0.0000000E+000	0.0000000E+000	0.0000000E+000	61.72	0.0000000E+000	0.0000000E+000	0.0000000E+000	-61.72	0.0000000E+000	0.0000000E+000	0.0000000E+000	-28.28	0.0000000E+000	0.0000000E+000	0.0000000E+000	28.28	1.85876	61.72
0.607315	408.319	231.489	469.374	-29.5503	09/05/2018 15:25:47.3684	-0.0240848	-2.60355e-05	1132.08	275.359	1	13	0.0216338	4.60907e-05	0.00185337	0.00105074	0.0021305	29.5503	275359	485700	558326	-60.4497	0.0000000E+000	0.0000000E+000	0.0000000E+000	60.4497	0.0000000E+000	0.0000000E+000	0.0000000E+000	-60.4497	0.0000000E+000	0.0000000E+000	0.0000000E+000	-29.5503	0.0000000E+000	0.0000000E+000	0.0000000E+000	29.5503	1.76388	60.4497
0.455911	444.838	263.481	517.014	-30.6386	09/05/2018 15:26:04.9906	-0.0240786	-9.82934e-06	1324.92	344.1	1	13	0.0216265	4.18296e-05	0.00166417	0.000985702	0.00193418	30.6386	344100	580948	675208	-59.3614	0.0000000E+000	0.0000000E+000	0.0000000E+000	59.3614	0.0000000E+000	0.0000000E+000	0.0000000E+000	-59.3614	0.0000000E+000	0.0000000E+000	0.0000000E+000	-30.6386	0.0000000E+000	0.0000000E+000	0.0000000E+000	30.6386	1.68831	59.3614
0.341098	484.092	298.469	568.708	-31.6561	09/05/2018 15:26:28.5228	-0.0240755	-4.79057e-05	1563.3	430.589	1	13	0.0216231	3.80215e-05	0.00149675	0.000922829	0.00175837	31.6561	430589	698378	820450	-58.3439	0.0000000E+000	0.0000000E+000	0.0000000E+000	58.3439	0.0000000E+000	0.0000000E+000	0.0000000E+000	-58.3439	0.0000000E+000	0.0000000E+000	0.0000000E+000	-31.6561	0.0000000E+000	0.0000000E+000	0.0000000E+000	31.6561	1.62191	58.3439
0.255712	522.358	338.044	622.199	-32.9089	09/05/2018 15:26:59.8918	-0.0240741	2.06995e-06	1841.18	543.48	1	13	0.0216212	3.47496e-05	0.0013493	0.0008732	0.0016072	32.9089	543480	839807	1.00032e+06	-57.0911	0.0000000E+000	0.0000000E+000	0.0000000E+000	57.0911	0.0000000E+000	0.0000000E+000	0.0000000E+000	-57.0911	0.0000000E+000	0.0000000E+000	0.0000000E+000	-32.9089	0.0000000E+000	0.0000000E+000	0.0000000E+000	32.9089	1.54524	57.0911
0.191483	556.772	387.504	678.346	-34.8373	09/05/2018 15:27:41.7620	-0.0240749	1.00529e-05	2144.94	699.944	1	13	0.0216195	3.18709e-05	0.00120997	0.000842118	0.00147417	34.8373	699944	1.00569e+06	1.22529e+06	-55.1627	0.0000000E+000	0.0000000E+000	0.0000000E+000	55.1627	0.0000000E+000	0.0000000E+000	0.0000000E+000	-55.1627	0.0000000E+000	0.0000000E+000	0.0000000E+000	-34.8373	0.0000000E+000	0.0000000E+000	0.0000000E+000	34.8373	1.43682	55.1627
0.143612	585.497	453.956	740.867	-37.7876	09/05/2018 15:28:37.5683	-0.024077	1.56591e-05	2441.27	916.564	1	13	0.0216193	2.91812e-05	0.00106671	0.000827054	0.00134977	37.7876	916564	1.18215e+06	1.49585e+06	-52.2124	0.0000000E+000	0.0000000E+000	0.0000000E+000	52.2124	0.0000000E+000	0.0000000E+000	0.0000000E+000	-52.2124	0.0000000E+000	0.0000000E+000	0.0000000E+000	-37.7876	0.0000000E+000	0.0000000E+000	0.0000000E+000	37.7876	1.28977	52.2124
0.107433	609.097	548.037	819.355	-41.9794	09/05/2018 15:29:52.1475	-0.0240739	2.19516e-05	2703.18	1209.34	1	13	0.0216193	2.63858e-05	0.000907281	0.000816329	0.00122047	41.9794	1.20934e+06	1.34408e+06	1.80806e+06	-48.0206	0.0000000E+000	0.0000000E+000	0.0000000E+000	48.0206	0.0000000E+000	0.0000000E+000	0.0000000E+000	-48.0206	0.0000000E+000	0.0000000E+000	0.0000000E+000	-41.9794	0.0000000E+000	0.0000000E+000	0.0000000E+000	41.9794	1.11142	48.0206
0.0805064	628.613	679.301	925.529	-47.2194	09/05/2018 15:31:31.6497	-0.0240674	2.04031e-05	2910.23	1567.73	1	13	0.0216192	2.33587e-05	0.000733844	0.000793017	0.00108046	47.2194	1.56773e+06	1.45075e+06	2.13599e+06	-42.7806	0.0000000E+000	0.0000000E+000	0.0000000E+000	42.7806	0.0000000E+000	0.0000000E+000	0.0000000E+000	-42.7806	0.0000000E+000	0.0000000E+000	0.0000000E+000	-47.2194	0.0000000E+000	0.0000000E+000	0.0000000E+000	47.2194	0.925382	42.7806
0.0603543	647.165	860.284	1076.53	-53.047	09/05/2018 15:33:44.3549	-0.0240612	9.36597e-06	3065.28	1957.51	1	13	0.0216125	2.00761e-05	0.000558425	0.000742321	0.000928913	53.047	1.95751e+06	1.47257e+06	2.44955e+06	-36.953	0.0000000E+000	0.0000000E+000	0.0000000E+000	36.953	0.0000000E+000	0.0000000E+000	0.0000000E+000	-36.953	0.0000000E+000	0.0000000E+000	0.0000000E+000	-53.047	0.0000000E+000	0.0000000E+000	0.0000000E+000	53.047	0.752269	36.953
0.0451955	663.98	1108.63	1292.25	-59.0817	09/05/2018 15:36:41.5493	-0.0240726	2.18742e-05	3176.43	2337.84	1	13	0.0216125	1.67247e-05	0.000397612	0.000663879	0.000773842	59.0817	2.33784e+06	1.40018e+06	2.72507e+06	-30.9183	0.0000000E+000	0.0000000E+000	0.0000000E+000	30.9183	0.0000000E+000	0.0000000E+000	0.0000000E+000	-30.9183	0.0000000E+000	0.0000000E+000	0.0000000E+000	-59.0817	0.0000000E+000	0.0000000E+000	0.0000000E+000	59.0817	0.598922	30.9183
0.0339084	683.031	1441.39	1595.04	-64.6451	09/05/2018 15:40:37.7067	-0.0240795	2.5462e-05	3256.35	2659.22	1	13	0.0216143	1.3551e-05	0.000268473	0.000566554	0.000626945	64.6451	2.65922e+06	1.26012e+06	2.94268e+06	-25.3549	0.0000000E+000	0.0000000E+000	0.0000000E+000	25.3549	0.0000000E+000	0.0000000E+000	0.0000000E+000	-25.3549	0.0000000E+000	0.0000000E+000	0.0000000E+000	-64.6451	0.0000000E+000	0.0000000E+000	0.0000000E+000	64.6451	0.47387	25.3549
0.0253679	706.466	1891.66	2019.27	-69.5211	09/05/2018 15:45:53.3494	-0.0240723	2.3661e-05	3316.61	2910.64	1	13	0.0216175	1.07056e-05	0.000173262	0.00046393	0.000495228	69.5211	2.91064e+06	1.08702e+06	3.107e+06	-20.4789	0.0000000E+000	0.0000000E+000	0.0000000E+000	20.4789	0.0000000E+000	0.0000000E+000	0.0000000E+000	-20.4789	0.0000000E+000	0.0000000E+000	0.0000000E+000	-69.5211	0.0000000E+000	0.0000000E+000	0.0000000E+000	69.5211	0.373465	20.4789
0.0190363	735.054	2485.39	2591.81	-73.5244	09/05/2018 15:52:53.9565	-0.0240589	2.4657e-05	3363.9	3093.33	1	13	0.021617	8.3405e-06	0.000109424	0.000369989	0.000385831	73.5244	3.09333e+06	914852	3.22578e+06	-16.4756	0.0000000E+000	0.0000000E+000	0.0000000E+000	16.4756	0.0000000E+000	0.0000000E+000	0.0000000E+000	-16.4756	0.0000000E+000	0.0000000E+000	0.0000000E+000	-73.5244	0.0000000E+000	0.0000000E+000	0.0000000E+000	73.5244	0.29575	16.4756
0.0142564	773.417	3280.34	3370.28	-76.7335	09/05/2018 16:02:15.5656	-0.0240678	2.54518e-05	3403.23	3224.01	1	13	0.0216177	6.41423e-06	6.80896e-05	0.000288793	0.000296711	76.7335	3.22401e+06	760137	3.31241e+06	-13.2665	0.0000000E+000	0.0000000E+000	0.0000000E+000	13.2665	0.0000000E+000	0.0000000E+000	0.0000000E+000	-13.2665	0.0000000E+000	0.0000000E+000	0.0000000E+000	-76.7335	0.0000000E+000	0.0000000E+000	0.0000000E+000	76.7335	0.235773	13.2665
0.0106845	823.048	4332.08	4409.57	-79.2426	09/05/2018 16:16:18.6541	-0.0240598	1.66151e-06	3438.51	3318.72	1	14	0.0216178	4.90247e-06	4.23285e-05	0.000222794	0.000226779	79.2426	3.31872e+06	630520	3.37808e+06	-10.7574	0.0000000E+000	0.0000000E+000	0.0000000E+000	10.7574	0.0000000E+000	0.0000000E+000	0.0000000E+000	-10.7574	0.0000000E+000	0.0000000E+000	0.0000000E+000	-79.2426	0.0000000E+000	0.0000000E+000	0.0000000E+000	79.2426	0.189989	10.7574
0.0080046	890.496	5729.29	5798.08	-81.1653	09/05/2018 16:32:58.8446	-0.0240634	2.2981e-06	3470.4	3388.54	1	14	0.0216187	3.7286e-06	2.64889e-05	0.000170424	0.000172471	81.1653	3.38854e+06	526676	3.42922e+06	-8.83472	0.0000000E+000	0.0000000E+000	0.0000000E+000	8.83472	0.0000000E+000	0.0000000E+000	0.0000000E+000	-8.83472	0.0000000E+000	0.0000000E+000	0.0000000E+000	-81.1653	0.0000000E+000	0.0000000E+000	0.0000000E+000	81.1653	0.155429	8.83472