File: exp data/EIS mpt files/two combined/RM_stacked second run DS_3+12_1_C05.mpt
EC-Lab ASCII FILE
Nb header lines : 66

Potentio Electrochemical Impedance Spectroscopy

Run on channel : 5 (SN 13220)
User :
CE vs. WE compliance from -10 V to 10 V
Electrode connection : standard
Potential control : Ewe
Ewe ctrl range : min = -1.00 V, max = 1.00 V
Safety Limits :
	Do not start on E overload
Acquisition started on : 09/05/2018 15:23:39.000
Loaded Setting File : NONE
Saved on :
	File : RM_stacked second run DS_3+12_1_C05.mpr
	Directory : D:\Robert\Stacked cells\Second run 3% and 12% PVDF electrodes 12%compressed\
	Host : 10.5.5.6
Device : VMP3 (SN 0628)
Address : 10.5.5.5
EC-Lab for windows v11.17 (software)
Internet server v11.16 (firmware)
Command interpretor v11.16 (firmware)
Electrode material :
Initial state :
Electrolyte :
Comments :
Electrode surface area : 0.001 cm²
Characteristic mass : 0.001 g
Equivalent Weight : 0.000 g/eq.
Density : 0.000 g/cm3
Volume (V) : 0.000 m³
Text export
   Mode : Standard
   Time format : Elapsed
Cycle Definition : Charge/Discharge alternance
Mode                Single sine
E (V)               0.0000
vs.                 Eoc
tE (h:m:s)          0:00:3.0000
record              1
dI                  0.000
unit dI             mA
dt (s)              60.000
fi                  200.000
unit fi             kHz
ff                  10.000
unit ff             mHz
Nd                  8
Points              per decade
spacing             Logarithmic
Va (mV)             20.0
pw                  3.00
Na                  5
corr                0
E range min (V)     -1.000
E range max (V)     1.000
I Range             Auto
Bandwidth           5
nc cycles           0
goto Ns'            0
nr cycles           0
inc. cycle          0

freq/Hz	Re(Z)/Ohm	-Im(Z)/Ohm	|Z|/Ohm	Phase(Z)/deg	time/s	<Ewe>/V	<I>/mA	Cs/µF	Cp/µF	cycle number	I Range	|Ewe|/V	|I|/A	Re(Y)/Ohm-1	Im(Y)/Ohm-1	|Y|/Ohm-1	Phase(Y)/deg	Re(C)/nF	Im(C)/nF	|C|/nF	Phase(C)/deg	Re(M)	Im(M)	|M|	Phase(M)/deg	Re(Permittivity)	Im(Permittivity)	|Permittivity|	Phase(Permittivity)/deg	Re(Resistivity)/Ohm.cm	Im(Resistivity)/Ohm.cm	|Resistivity|/Ohm.cm	Phase(Resistivity)/deg	Re(Conductivity)/mS/cm	Im(Conductivity)/mS/cm	|Conductivity|/mS/cm	Phase(Conductivity)/deg	Tan(Delta)	Loss Angle(Delta)/deg
200019	153.839	-0.399587	153.839	0.148822	09/05/2018 15:23:44.3331	0.0029142	-0.0014419	-1.9913	-1.34346e-05	1	11	0.0179333	0.000116571	0.00650027	-1.68841e-05	0.00650029	-0.148822	-0.0134343	5.17225	5.17226	-90.1488	0.0000000E+000	0.0000000E+000	0.0000000E+000	90.1488	0.0000000E+000	0.0000000E+000	0.0000000E+000	-90.1488	0.0000000E+000	0.0000000E+000	0.0000000E+000	0.148822	0.0000000E+000	0.0000000E+000	0.0000000E+000	-0.148822	384.995	89.8512
149678	153.273	0.0796957	153.273	-0.0297915	09/05/2018 15:23:45.3981	0.00344402	0.00187209	13.3422	3.60716e-06	1	11	0.0204703	0.000133554	0.0065243	3.39237e-06	0.0065243	0.0297915	0.00360733	6.9374	6.9374	-89.9702	0.0000000E+000	0.0000000E+000	0.0000000E+000	89.9702	0.0000000E+000	0.0000000E+000	0.0000000E+000	-89.9702	0.0000000E+000	0.0000000E+000	0.0000000E+000	-0.0297915	0.0000000E+000	0.0000000E+000	0.0000000E+000	0.0297915	1923.23	89.9702
112012	152.995	0.513778	152.996	-0.192406	09/05/2018 15:23:46.4621	0.00345725	0.00196647	2.76555	3.11868e-05	1	11	0.0207558	0.000135662	0.00653607	2.1949e-05	0.00653611	0.192406	0.0311868	9.28696	9.28701	-89.8076	0.0000000E+000	0.0000000E+000	0.0000000E+000	89.8076	0.0000000E+000	0.0000000E+000	0.0000000E+000	-89.8076	0.0000000E+000	0.0000000E+000	0.0000000E+000	-0.192406	0.0000000E+000	0.0000000E+000	0.0000000E+000	0.192406	297.785	89.8076
83828.1	153.01	0.88777	153.012	-0.332429	09/05/2018 15:23:47.5271	0.00345842	0.00195509	2.1386	7.19908e-05	1	11	0.0207001	0.000135284	0.00653531	3.79181e-05	0.00653542	0.332429	0.0719907	12.4078	12.4081	-89.6676	0.0000000E+000	0.0000000E+000	0.0000000E+000	89.6676	0.0000000E+000	0.0000000E+000	0.0000000E+000	-89.6676	0.0000000E+000	0.0000000E+000	0.0000000E+000	-0.332429	0.0000000E+000	0.0000000E+000	0.0000000E+000	0.332429	172.353	89.6676
62734.4	153.102	1.10228	153.106	-0.412501	09/05/2018 15:23:48.5921	0.00346632	0.00198624	2.30157	0.000119295	1	11	0.0205966	0.000134525	0.00653125	4.70226e-05	0.00653142	0.412501	0.119294	16.5696	16.57	-89.5875	0.0000000E+000	0.0000000E+000	0.0000000E+000	89.5875	0.0000000E+000	0.0000000E+000	0.0000000E+000	-89.5875	0.0000000E+000	0.0000000E+000	0.0000000E+000	-0.412501	0.0000000E+000	0.0000000E+000	0.0000000E+000	0.412501	138.896	89.5875
46953.1	153.275	1.30681	153.28	-0.488488	09/05/2018 15:23:49.6571	0.00347273	0.00203827	2.59384	0.000188536	1	11	0.0204776	0.000133596	0.00652376	5.56211e-05	0.00652399	0.488488	0.188536	22.1133	22.1141	-89.5115	0.0000000E+000	0.0000000E+000	0.0000000E+000	89.5115	0.0000000E+000	0.0000000E+000	0.0000000E+000	-89.5115	0.0000000E+000	0.0000000E+000	0.0000000E+000	-0.488488	0.0000000E+000	0.0000000E+000	0.0000000E+000	0.488488	117.289	89.5115
35136.7	153.478	1.52397	153.485	-0.568906	09/05/2018 15:23:50.7221	0.00347962	0.00200619	2.97222	0.000293024	1	11	0.0204382	0.000133161	0.00651496	6.4691e-05	0.00651528	0.568906	0.293025	29.5101	29.5115	-89.4311	0.0000000E+000	0.0000000E+000	0.0000000E+000	89.4311	0.0000000E+000	0.0000000E+000	0.0000000E+000	-89.4311	0.0000000E+000	0.0000000E+000	0.0000000E+000	-0.568906	0.0000000E+000	0.0000000E+000	0.0000000E+000	0.568906	100.709	89.4311
26298.8	153.696	1.63682	153.704	-0.610163	09/05/2018 15:23:51.7871	0.00347129	0.00196964	3.69729	0.000419288	1	11	0.0202683	0.000131865	0.00650563	6.92833e-05	0.006506	0.610163	0.419287	39.3707	39.3729	-89.3898	0.0000000E+000	0.0000000E+000	0.0000000E+000	89.3898	0.0000000E+000	0.0000000E+000	0.0000000E+000	-89.3898	0.0000000E+000	0.0000000E+000	0.0000000E+000	-0.610163	0.0000000E+000	0.0000000E+000	0.0000000E+000	0.610163	93.8989	89.3898
19677.7	153.974	1.8136	153.984	-0.674835	09/05/2018 15:23:52.7261	0.00347865	0.00202801	4.45968	0.000618633	1	11	0.0218583	0.000141951	0.00649371	7.64871e-05	0.00649416	0.674835	0.618633	52.5216	52.5253	-89.3252	0.0000000E+000	0.0000000E+000	0.0000000E+000	89.3252	0.0000000E+000	0.0000000E+000	0.0000000E+000	-89.3252	0.0000000E+000	0.0000000E+000	0.0000000E+000	-0.674835	0.0000000E+000	0.0000000E+000	0.0000000E+000	0.674835	84.8995	89.3252
14726.6	154.248	2.04084	154.261	-0.758032	09/05/2018 15:23:53.7911	0.00348196	0.00199537	5.29553	0.000926859	1	11	0.0202265	0.000131118	0.00648193	8.57619e-05	0.0064825	0.758032	0.926861	70.0525	70.0586	-89.242	0.0000000E+000	0.0000000E+000	0.0000000E+000	89.242	0.0000000E+000	0.0000000E+000	0.0000000E+000	-89.242	0.0000000E+000	0.0000000E+000	0.0000000E+000	-0.758032	0.0000000E+000	0.0000000E+000	0.0000000E+000	0.758032	75.5805	89.242
11025.4	154.543	2.31764	154.56	-0.859186	09/05/2018 15:23:54.7301	0.00347159	0.00193868	6.22846	0.00140048	1	11	0.0208142	0.000134668	0.00646925	9.70177e-05	0.00646998	0.859186	1.40048	93.3857	93.3962	-89.1408	0.0000000E+000	0.0000000E+000	0.0000000E+000	89.1408	0.0000000E+000	0.0000000E+000	0.0000000E+000	-89.1408	0.0000000E+000	0.0000000E+000	0.0000000E+000	-0.859186	0.0000000E+000	0.0000000E+000	0.0000000E+000	0.859186	66.6811	89.1408
8325.19	154.89	2.60071	154.912	-0.961944	09/05/2018 15:23:55.8216	0.00348684	0.00207221	7.3508	0.0020718	1	11	0.0211574	0.000136577	0.00645437	0.000108373	0.00645528	0.961944	2.0718	123.39	123.407	-89.0381	0.0000000E+000	0.0000000E+000	0.0000000E+000	89.0381	0.0000000E+000	0.0000000E+000	0.0000000E+000	-89.0381	0.0000000E+000	0.0000000E+000	0.0000000E+000	-0.961944	0.0000000E+000	0.0000000E+000	0.0000000E+000	0.961944	59.5569	89.0381
6195.49	155.299	2.9591	155.328	-1.09159	09/05/2018 15:23:57.2368	0.00348582	0.0019937	8.6813	0.0031507	1	11	0.0213693	0.000137576	0.00643684	0.000122649	0.00643801	1.09159	3.1507	165.355	165.385	-88.9084	0.0000000E+000	0.0000000E+000	0.0000000E+000	88.9084	0.0000000E+000	0.0000000E+000	0.0000000E+000	-88.9084	0.0000000E+000	0.0000000E+000	0.0000000E+000	-1.09159	0.0000000E+000	0.0000000E+000	0.0000000E+000	1.09159	52.482	88.9084
4621.48	155.786	3.38528	155.822	-1.24486	09/05/2018 15:23:58.9247	0.00349003	0.00197616	10.1729	0.00480147	1	11	0.0214864	0.00013789	0.00641605	0.000139423	0.00641756	1.24486	4.80148	220.957	221.009	-88.7551	0.0000000E+000	0.0000000E+000	0.0000000E+000	88.7551	0.0000000E+000	0.0000000E+000	0.0000000E+000	-88.7551	0.0000000E+000	0.0000000E+000	0.0000000E+000	-1.24486	0.0000000E+000	0.0000000E+000	0.0000000E+000	1.24486	46.0186	88.7551
3456.11	156.309	3.88549	156.357	-1.42396	09/05/2018 15:24:00.6117	0.003482	0.00195472	11.8519	0.00731889	1	11	0.0215482	0.000137814	0.00639365	0.000158932	0.00639562	1.42396	7.3189	294.43	294.521	-88.576	0.0000000E+000	0.0000000E+000	0.0000000E+000	88.576	0.0000000E+000	0.0000000E+000	0.0000000E+000	-88.576	0.0000000E+000	0.0000000E+000	0.0000000E+000	-1.42396	0.0000000E+000	0.0000000E+000	0.0000000E+000	1.42396	40.2288	88.576
2585.83	156.901	4.49888	156.965	-1.64242	09/05/2018 15:24:02.2987	0.00348677	0.00198624	13.681	0.0112388	1	11	0.0215849	0.000137514	0.00636822	0.000182599	0.00637084	1.64242	11.2388	391.958	392.119	-88.3576	0.0000000E+000	0.0000000E+000	0.0000000E+000	88.3576	0.0000000E+000	0.0000000E+000	0.0000000E+000	-88.3576	0.0000000E+000	0.0000000E+000	0.0000000E+000	-1.64242	0.0000000E+000	0.0000000E+000	0.0000000E+000	1.64242	34.8755	88.3576
1935.62	157.588	5.12411	157.672	-1.86236	09/05/2018 15:24:03.9867	0.00347958	0.00195695	16.0466	0.0169477	1	11	0.0216025	0.000137009	0.00633894	0.000206115	0.00634229	1.86236	16.9477	521.215	521.491	-88.1376	0.0000000E+000	0.0000000E+000	0.0000000E+000	88.1376	0.0000000E+000	0.0000000E+000	0.0000000E+000	-88.1376	0.0000000E+000	0.0000000E+000	0.0000000E+000	-1.86236	0.0000000E+000	0.0000000E+000	0.0000000E+000	1.86236	30.7543	88.1376
1448.61	158.393	5.88617	158.503	-2.12823	09/05/2018 15:24:05.6749	0.00347837	0.00193812	18.6654	0.0257412	1	11	0.0216131	0.000136358	0.00630469	0.000234293	0.00630904	2.12823	25.7411	692.68	693.158	-87.8718	0.0000000E+000	0.0000000E+000	0.0000000E+000	87.8718	0.0000000E+000	0.0000000E+000	0.0000000E+000	-87.8718	0.0000000E+000	0.0000000E+000	0.0000000E+000	-2.12823	0.0000000E+000	0.0000000E+000	0.0000000E+000	2.12823	26.9094	87.8718
1083.96	159.299	6.8005	159.445	-2.44448	09/05/2018 15:24:07.3640	0.00348513	0.00196236	21.5907	0.0392761	1	11	0.0216192	0.000135591	0.00626607	0.000267499	0.00627177	2.44448	39.2761	920.03	920.868	-87.5555	0.0000000E+000	0.0000000E+000	0.0000000E+000	87.5555	0.0000000E+000	0.0000000E+000	0.0000000E+000	-87.5555	0.0000000E+000	0.0000000E+000	0.0000000E+000	-2.44448	0.0000000E+000	0.0000000E+000	0.0000000E+000	2.44448	23.4247	87.5555
811.298	160.317	7.83109	160.508	-2.79654	09/05/2018 15:24:09.0494	0.00348012	0.00196311	25.0506	0.0596307	1	11	0.0216206	0.000134701	0.00622281	0.000303969	0.00623023	2.79654	59.6307	1220.75	1222.2	-87.2035	0.0000000E+000	0.0000000E+000	0.0000000E+000	87.2035	0.0000000E+000	0.0000000E+000	0.0000000E+000	-87.2035	0.0000000E+000	0.0000000E+000	0.0000000E+000	-2.79654	0.0000000E+000	0.0000000E+000	0.0000000E+000	2.79654	20.4718	87.2035
607.527	161.496	9.04813	161.749	-3.20676	09/05/2018 15:24:10.7289	0.00348351	0.00194502	28.9531	0.0906003	1	11	0.0216205	0.000133667	0.00617274	0.00034584	0.00618242	3.20676	90.6003	1617.08	1619.62	-86.7932	0.0000000E+000	0.0000000E+000	0.0000000E+000	86.7932	0.0000000E+000	0.0000000E+000	0.0000000E+000	-86.7932	0.0000000E+000	0.0000000E+000	0.0000000E+000	-3.20676	0.0000000E+000	0.0000000E+000	0.0000000E+000	3.20676	17.8485	86.7932
454.564	162.881	10.4981	163.219	-3.68774	09/05/2018 15:24:12.4179	0.00347606	0.00189093	33.3516	0.137973	1	11	0.0216225	0.000132475	0.00611405	0.000394065	0.00612674	3.68774	137.973	2140.69	2145.14	-86.3123	0.0000000E+000	0.0000000E+000	0.0000000E+000	86.3123	0.0000000E+000	0.0000000E+000	0.0000000E+000	-86.3123	0.0000000E+000	0.0000000E+000	0.0000000E+000	-3.68774	0.0000000E+000	0.0000000E+000	0.0000000E+000	3.68774	15.5153	86.3123
340.109	164.435	12.2032	164.888	-4.24429	09/05/2018 15:24:14.1057	0.00348472	0.0019217	38.3468	0.210039	1	11	0.0216227	0.000131136	0.00604811	0.000448846	0.00606474	4.24429	210.039	2830.23	2838.01	-85.7557	0.0000000E+000	0.0000000E+000	0.0000000E+000	85.7557	0.0000000E+000	0.0000000E+000	0.0000000E+000	-85.7557	0.0000000E+000	0.0000000E+000	0.0000000E+000	-4.24429	0.0000000E+000	0.0000000E+000	0.0000000E+000	4.24429	13.4748	85.7557
254.43	166.228	14.1736	166.831	-4.87359	09/05/2018 15:24:15.7962	0.00347822	0.00193364	44.1339	0.31855	1	11	0.0216216	0.000129602	0.00597242	0.000509244	0.00599409	4.87359	318.55	3735.96	3749.51	-85.1264	0.0000000E+000	0.0000000E+000	0.0000000E+000	85.1264	0.0000000E+000	0.0000000E+000	0.0000000E+000	-85.1264	0.0000000E+000	0.0000000E+000	0.0000000E+000	-4.87359	0.0000000E+000	0.0000000E+000	0.0000000E+000	4.87359	11.728	85.1264
190.549	168.281	16.5386	169.092	-5.61298	09/05/2018 15:24:17.4782	0.0034801	0.00192189	50.5027	0.483133	1	11	0.0216166	0.000127839	0.00588558	0.000578432	0.00591394	5.61298	483.133	4915.9	4939.59	-84.387	0.0000000E+000	0.0000000E+000	0.0000000E+000	84.387	0.0000000E+000	0.0000000E+000	0.0000000E+000	-84.387	0.0000000E+000	0.0000000E+000	0.0000000E+000	-5.61298	0.0000000E+000	0.0000000E+000	0.0000000E+000	5.61298	10.1751	84.387
142.492	170.693	19.2925	171.78	-6.44846	09/05/2018 15:24:19.1923	0.00348109	0.00192916	57.895	0.730254	1	11	0.0216183	0.000125849	0.00578458	0.0006538	0.00582141	6.44846	730.254	6461.02	6502.16	-83.5515	0.0000000E+000	0.0000000E+000	0.0000000E+000	83.5515	0.0000000E+000	0.0000000E+000	0.0000000E+000	-83.5515	0.0000000E+000	0.0000000E+000	0.0000000E+000	-6.44846	0.0000000E+000	0.0000000E+000	0.0000000E+000	6.44846	8.84763	83.5515
106.673	173.499	22.5638	174.96	-7.40983	09/05/2018 15:24:20.8536	0.00347826	0.00190548	66.1233	1.09977	1	11	0.0216172	0.000123555	0.00566787	0.000737117	0.0057156	7.40983	1099.77	8456.43	8527.65	-82.5902	0.0000000E+000	0.0000000E+000	0.0000000E+000	82.5902	0.0000000E+000	0.0000000E+000	0.0000000E+000	-82.5902	0.0000000E+000	0.0000000E+000	0.0000000E+000	-7.40983	0.0000000E+000	0.0000000E+000	0.0000000E+000	7.40983	7.68924	82.5902
79.8212	176.799	26.4369	178.765	-8.50445	09/05/2018 15:24:22.5442	0.00348377	0.0019148	75.4209	1.64948	1	11	0.021616	0.000120918	0.00553243	0.000827267	0.00559394	8.50445	1649.48	11031.1	11153.7	-81.4956	0.0000000E+000	0.0000000E+000	0.0000000E+000	81.4956	0.0000000E+000	0.0000000E+000	0.0000000E+000	-81.4956	0.0000000E+000	0.0000000E+000	0.0000000E+000	-8.50445	0.0000000E+000	0.0000000E+000	0.0000000E+000	8.50445	6.6876	81.4956
59.7895	180.697	31.0025	183.338	-9.73553	09/05/2018 15:24:24.2384	0.00347669	0.00188739	85.8615	2.45521	1	11	0.0216177	0.000117912	0.00537587	0.000922346	0.00545442	9.73553	2455.21	14310.1	14519.2	-80.2645	0.0000000E+000	0.0000000E+000	0.0000000E+000	80.2645	0.0000000E+000	0.0000000E+000	0.0000000E+000	-80.2645	0.0000000E+000	0.0000000E+000	0.0000000E+000	-9.73553	0.0000000E+000	0.0000000E+000	0.0000000E+000	9.73553	5.82847	80.2645
44.728	185.345	36.4236	188.89	-11.118	09/05/2018 15:24:26.1829	0.00347913	0.000192926	97.6917	3.63251	1	12	0.0216329	0.000114527	0.00519474	0.00102086	0.0052941	11.118	3632.51	18484.3	18837.9	-78.882	0.0000000E+000	0.0000000E+000	0.0000000E+000	78.882	0.0000000E+000	0.0000000E+000	0.0000000E+000	-78.882	0.0000000E+000	0.0000000E+000	0.0000000E+000	-11.118	0.0000000E+000	0.0000000E+000	0.0000000E+000	11.118	5.08859	78.882
33.4276	190.772	42.779	195.51	-12.639	09/05/2018 15:24:27.9442	0.00347018	0.000173113	111.297	5.32854	1	12	0.0216305	0.000110636	0.00499089	0.00111916	0.00511483	12.639	5328.54	23762.6	24352.7	-77.361	0.0000000E+000	0.0000000E+000	0.0000000E+000	77.361	0.0000000E+000	0.0000000E+000	0.0000000E+000	-77.361	0.0000000E+000	0.0000000E+000	0.0000000E+000	-12.639	0.0000000E+000	0.0000000E+000	0.0000000E+000	12.639	4.45948	77.361
25.0401	197.162	50.1672	203.445	-14.2758	09/05/2018 15:24:29.6294	0.00347358	0.000221917	126.696	7.70392	1	12	0.0216295	0.000106316	0.00476355	0.00121207	0.00491534	14.2758	7703.92	30277.2	31242	-75.7242	0.0000000E+000	0.0000000E+000	0.0000000E+000	75.7242	0.0000000E+000	0.0000000E+000	0.0000000E+000	-75.7242	0.0000000E+000	0.0000000E+000	0.0000000E+000	-14.2758	0.0000000E+000	0.0000000E+000	0.0000000E+000	14.2758	3.9301	75.7242
18.735	204.695	58.8012	212.973	-16.0274	09/05/2018 15:24:31.4232	0.00347541	0.000187236	144.471	11.0129	1	12	0.0216247	0.000101537	0.00451292	0.00129639	0.00469543	16.0274	11012.9	38337.5	39887.9	-73.9726	0.0000000E+000	0.0000000E+000	0.0000000E+000	73.9726	0.0000000E+000	0.0000000E+000	0.0000000E+000	-73.9726	0.0000000E+000	0.0000000E+000	0.0000000E+000	-16.0274	0.0000000E+000	0.0000000E+000	0.0000000E+000	16.0274	3.48113	73.9726
14.0176	213.633	68.8941	224.467	-17.8739	09/05/2018 15:24:33.2218	0.00347476	0.000190808	164.802	15.5246	1	12	0.0216241	9.63354e-05	0.00423997	0.00136734	0.00445499	17.8739	15524.6	48140.2	50581.6	-72.1261	0.0000000E+000	0.0000000E+000	0.0000000E+000	72.1261	0.0000000E+000	0.0000000E+000	0.0000000E+000	-72.1261	0.0000000E+000	0.0000000E+000	0.0000000E+000	-17.8739	0.0000000E+000	0.0000000E+000	0.0000000E+000	17.8739	3.10089	72.1261
10.5007	224.1	80.5981	238.153	-19.7812	09/05/2018 15:24:34.8342	0.00347187	0.000180407	188.052	21.5385	1	12	0.0216207	9.07848e-05	0.00395121	0.00142106	0.00419898	19.7812	21538.5	59887	63642.5	-70.2188	0.0000000E+000	0.0000000E+000	0.0000000E+000	70.2188	0.0000000E+000	0.0000000E+000	0.0000000E+000	-70.2188	0.0000000E+000	0.0000000E+000	0.0000000E+000	-19.7812	0.0000000E+000	0.0000000E+000	0.0000000E+000	19.7812	2.78046	70.2188
7.85965	236.543	94.2885	254.642	-21.7328	09/05/2018 15:24:36.9523	0.00347638	0.000184381	214.762	29.4451	1	12	0.0216186	8.4898e-05	0.00364794	0.00145411	0.00392708	21.7328	29445.1	73869.4	79521.8	-68.2672	0.0000000E+000	0.0000000E+000	0.0000000E+000	68.2672	0.0000000E+000	0.0000000E+000	0.0000000E+000	-68.2672	0.0000000E+000	0.0000000E+000	0.0000000E+000	-21.7328	0.0000000E+000	0.0000000E+000	0.0000000E+000	21.7328	2.50871	68.2672
5.88291	251.436	110.015	274.451	-23.6316	09/05/2018 15:24:38.4027	0.00347604	0.00027669	245.91	39.5139	1	12	0.0216171	7.87649e-05	0.00333808	0.00146057	0.00364363	23.6316	39513.9	90307.9	98574.1	-66.3684	0.0000000E+000	0.0000000E+000	0.0000000E+000	66.3684	0.0000000E+000	0.0000000E+000	0.0000000E+000	-66.3684	0.0000000E+000	0.0000000E+000	0.0000000E+000	-23.6316	0.0000000E+000	0.0000000E+000	0.0000000E+000	23.6316	2.28547	66.3684
4.39893	269.204	128.491	298.297	-25.515	09/05/2018 15:24:40.3091	0.00347613	0.000174139	281.58	52.2454	1	12	0.0216188	7.24743e-05	0.00302542	0.00144403	0.00335237	25.515	52245.4	109461	121290	-64.485	0.0000000E+000	0.0000000E+000	0.0000000E+000	64.485	0.0000000E+000	0.0000000E+000	0.0000000E+000	-64.485	0.0000000E+000	0.0000000E+000	0.0000000E+000	-25.515	0.0000000E+000	0.0000000E+000	0.0000000E+000	25.515	2.09513	64.485
3.29363	290.653	149.303	326.758	-27.1887	09/05/2018 15:24:42.8194	0.00347804	0.00016135	323.65	67.5712	1	12	0.021617	6.61561e-05	0.00272221	0.00139835	0.00306037	27.1887	67571.2	131543	147883	-62.8113	0.0000000E+000	0.0000000E+000	0.0000000E+000	62.8113	0.0000000E+000	0.0000000E+000	0.0000000E+000	-62.8113	0.0000000E+000	0.0000000E+000	0.0000000E+000	-27.1887	0.0000000E+000	0.0000000E+000	0.0000000E+000	27.1887	1.94673	62.8113
2.46607	316.108	172.388	360.059	-28.6056	09/05/2018 15:24:46.1424	0.00348194	0.000184929	374.376	85.8175	1	12	0.0216169	6.00372e-05	0.00243831	0.00132972	0.00277733	28.6056	85817.5	157364	179243	-61.3944	0.0000000E+000	0.0000000E+000	0.0000000E+000	61.3944	0.0000000E+000	0.0000000E+000	0.0000000E+000	-61.3944	0.0000000E+000	0.0000000E+000	0.0000000E+000	-28.6056	0.0000000E+000	0.0000000E+000	0.0000000E+000	28.6056	1.8337	61.3944
1.84257	346.582	198.084	399.195	-29.7494	09/05/2018 15:24:50.5586	0.00347865	0.000214608	436.061	107.368	1	12	0.0216175	5.41527e-05	0.00217489	0.00124302	0.00250504	29.7494	107368	187859	216377	-60.2506	0.0000000E+000	0.0000000E+000	0.0000000E+000	60.2506	0.0000000E+000	0.0000000E+000	0.0000000E+000	-60.2506	0.0000000E+000	0.0000000E+000	0.0000000E+000	-29.7494	0.0000000E+000	0.0000000E+000	0.0000000E+000	29.7494	1.74968	60.2506
1.38128	381.796	225.463	443.398	-30.5633	09/05/2018 15:24:57.1920	0.00348199	3.70696e-05	511.051	132.138	1	13	0.0216223	4.8765e-05	0.00194198	0.0011468	0.00225531	30.5633	132138	223761	259864	-59.4367	0.0000000E+000	0.0000000E+000	0.0000000E+000	59.4367	0.0000000E+000	0.0000000E+000	0.0000000E+000	-59.4367	0.0000000E+000	0.0000000E+000	0.0000000E+000	-30.5633	0.0000000E+000	0.0000000E+000	0.0000000E+000	30.5633	1.69338	59.4367
1.0334	422.335	254.728	493.207	-31.0959	09/05/2018 15:25:05.0080	0.00348245	2.34066e-05	604.611	161.276	1	13	0.0216202	4.38359e-05	0.0017362	0.00104717	0.00202755	31.0959	161276	267393	312264	-58.9041	0.0000000E+000	0.0000000E+000	0.0000000E+000	58.9041	0.0000000E+000	0.0000000E+000	0.0000000E+000	-58.9041	0.0000000E+000	0.0000000E+000	0.0000000E+000	-31.0959	0.0000000E+000	0.0000000E+000	0.0000000E+000	31.0959	1.65799	58.9041
0.773208	468.476	285.759	548.751	-31.3822	09/05/2018 15:25:15.4296	0.00348428	1.36115e-05	720.317	195.332	1	13	0.02162	3.93986e-05	0.00155574	0.000948962	0.00182232	31.3822	195332	320228	375101	-58.6178	0.0000000E+000	0.0000000E+000	0.0000000E+000	58.6178	0.0000000E+000	0.0000000E+000	0.0000000E+000	-58.6178	0.0000000E+000	0.0000000E+000	0.0000000E+000	-31.3822	0.0000000E+000	0.0000000E+000	0.0000000E+000	31.3822	1.63941	58.6178
0.578532	520.31	317.673	609.621	-31.4059	09/05/2018 15:25:29.3322	0.00348438	-3.87225e-05	865.99	235.154	1	13	0.0216186	3.54624e-05	0.00140004	0.00085479	0.00164036	31.4059	235154	385154	451266	-58.5941	0.0000000E+000	0.0000000E+000	0.0000000E+000	58.5941	0.0000000E+000	0.0000000E+000	0.0000000E+000	-58.5941	0.0000000E+000	0.0000000E+000	0.0000000E+000	-31.4059	0.0000000E+000	0.0000000E+000	0.0000000E+000	31.4059	1.63788	58.5941
0.433065	577.181	350.354	675.193	-31.2581	09/05/2018 15:25:47.8814	0.00348339	-3.3207e-05	1048.96	282.434	1	13	0.0216153	3.20136e-05	0.00126607	0.000768512	0.00148106	31.2581	282434	465289	544301	-58.7419	0.0000000E+000	0.0000000E+000	0.0000000E+000	58.7419	0.0000000E+000	0.0000000E+000	0.0000000E+000	-58.7419	0.0000000E+000	0.0000000E+000	0.0000000E+000	-31.2581	0.0000000E+000	0.0000000E+000	0.0000000E+000	31.2581	1.64742	58.7419
0.323901	636.05	382.744	742.329	-31.0375	09/05/2018 15:26:12.6596	0.00348691	-5.46547e-06	1283.81	341.29	1	13	0.0216151	2.9118e-05	0.00115425	0.000694569	0.00134711	31.0375	341289	567160	661928	-58.9625	0.0000000E+000	0.0000000E+000	0.0000000E+000	58.9625	0.0000000E+000	0.0000000E+000	0.0000000E+000	-58.9625	0.0000000E+000	0.0000000E+000	0.0000000E+000	-31.0375	0.0000000E+000	0.0000000E+000	0.0000000E+000	31.0375	1.66182	58.9625
0.242323	691.944	416.992	807.879	-31.0748	09/05/2018 15:26:45.7584	0.00348763	4.67694e-06	1575.06	419.624	1	13	0.0216156	2.6756e-05	0.00106018	0.000638903	0.00123781	31.0748	419624	696311	812978	-58.9252	0.0000000E+000	0.0000000E+000	0.0000000E+000	58.9252	0.0000000E+000	0.0000000E+000	0.0000000E+000	-58.9252	0.0000000E+000	0.0000000E+000	0.0000000E+000	-31.0748	0.0000000E+000	0.0000000E+000	0.0000000E+000	31.0748	1.65937	58.9252
0.181534	740.136	459.569	871.209	-31.8372	09/05/2018 15:27:29.9198	0.00348543	9.19177e-06	1907.7	530.845	1	13	0.0216164	2.4812e-05	0.000975139	0.000605488	0.00114783	31.8372	530845	854926	1.00633e+06	-58.1628	0.0000000E+000	0.0000000E+000	0.0000000E+000	58.1628	0.0000000E+000	0.0000000E+000	0.0000000E+000	-58.1628	0.0000000E+000	0.0000000E+000	0.0000000E+000	-31.8372	0.0000000E+000	0.0000000E+000	0.0000000E+000	31.8372	1.6105	58.1628
0.135846	779.219	520.612	937.133	-33.7477	09/05/2018 15:28:28.9129	0.00348688	1.41653e-05	2250.4	694.519	1	13	0.0216158	2.30659e-05	0.000887272	0.000592804	0.00106708	33.7477	694519	1.03951e+06	1.25018e+06	-56.2523	0.0000000E+000	0.0000000E+000	0.0000000E+000	56.2523	0.0000000E+000	0.0000000E+000	0.0000000E+000	-56.2523	0.0000000E+000	0.0000000E+000	0.0000000E+000	-33.7477	0.0000000E+000	0.0000000E+000	0.0000000E+000	33.7477	1.49674	56.2523
0.101725	809.946	611.089	1014.62	-37.0339	09/05/2018 15:29:47.6728	0.00349032	1.62702e-05	2560.28	928.739	1	13	0.0216168	2.13054e-05	0.000786781	0.000593611	0.000985596	37.0339	928739	1.23096e+06	1.54202e+06	-52.9661	0.0000000E+000	0.0000000E+000	0.0000000E+000	52.9661	0.0000000E+000	0.0000000E+000	0.0000000E+000	-52.9661	0.0000000E+000	0.0000000E+000	0.0000000E+000	-37.0339	0.0000000E+000	0.0000000E+000	0.0000000E+000	37.0339	1.32541	52.9661
0.0761037	834.928	743.4	1117.92	-41.6811	09/05/2018 15:31:32.9282	0.00349024	1.66682e-05	2813.14	1243.98	1	13	0.0216163	1.93362e-05	0.000668077	0.00059484	0.000894517	41.6811	1.24398e+06	1.39714e+06	1.8707e+06	-48.3189	0.0000000E+000	0.0000000E+000	0.0000000E+000	48.3189	0.0000000E+000	0.0000000E+000	0.0000000E+000	-48.3189	0.0000000E+000	0.0000000E+000	0.0000000E+000	-41.6811	0.0000000E+000	0.0000000E+000	0.0000000E+000	41.6811	1.12312	48.3189
0.0569665	856.922	930.167	1264.72	-47.347	09/05/2018 15:33:53.5218	0.00349504	2.70509e-05	3003.58	1624.69	1	13	0.0216091	1.70861e-05	0.000535735	0.000581526	0.000790686	47.347	1.62469e+06	1.49675e+06	2.20905e+06	-42.653	0.0000000E+000	0.0000000E+000	0.0000000E+000	42.653	0.0000000E+000	0.0000000E+000	0.0000000E+000	-42.653	0.0000000E+000	0.0000000E+000	0.0000000E+000	-47.347	0.0000000E+000	0.0000000E+000	0.0000000E+000	47.347	0.921256	42.653
0.0426446	878.01	1188.24	1477.44	-53.5388	09/05/2018 15:37:01.3122	0.00349259	2.69006e-05	3140.87	2031.62	1	13	0.0216137	1.46292e-05	0.000402236	0.000544361	0.000676848	53.5388	2.03162e+06	1.50119e+06	2.52608e+06	-36.4612	0.0000000E+000	0.0000000E+000	0.0000000E+000	36.4612	0.0000000E+000	0.0000000E+000	0.0000000E+000	-36.4612	0.0000000E+000	0.0000000E+000	0.0000000E+000	-53.5388	0.0000000E+000	0.0000000E+000	0.0000000E+000	53.5388	0.738915	36.4612
0.0319138	902.12	1539.84	1784.64	-59.636	09/05/2018 15:41:12.2256	0.00348628	2.88849e-05	3238.66	2411.11	1	13	0.0216145	1.21114e-05	0.000283246	0.000483477	0.000560337	59.636	2.41111e+06	1.41255e+06	2.79442e+06	-30.364	0.0000000E+000	0.0000000E+000	0.0000000E+000	30.364	0.0000000E+000	0.0000000E+000	0.0000000E+000	-30.364	0.0000000E+000	0.0000000E+000	0.0000000E+000	-59.636	0.0000000E+000	0.0000000E+000	0.0000000E+000	59.636	0.585852	30.364
0.0238768	930.15	2012.87	2217.39	-65.1983	09/05/2018 15:46:47.5758	0.00348576	2.52556e-05	3311.53	2728.82	1	13	0.0216153	9.7481e-06	0.000189177	0.000409385	0.000450981	65.1983	2.72882e+06	1.26099e+06	3.00609e+06	-24.8017	0.0000000E+000	0.0000000E+000	0.0000000E+000	24.8017	0.0000000E+000	0.0000000E+000	0.0000000E+000	-24.8017	0.0000000E+000	0.0000000E+000	0.0000000E+000	-65.1983	0.0000000E+000	0.0000000E+000	0.0000000E+000	65.1983	0.462102	24.8018
0.0178412	966.624	2650.7	2821.45	-69.9647	09/05/2018 15:54:16.3547	0.00348344	1.61998e-05	3365.4	2970.39	1	13	0.0216155	7.66114e-06	0.000121427	0.000332979	0.000354428	69.9647	2.97039e+06	1.08321e+06	3.16173e+06	-20.0353	0.0000000E+000	0.0000000E+000	0.0000000E+000	20.0353	0.0000000E+000	0.0000000E+000	0.0000000E+000	-20.0353	0.0000000E+000	0.0000000E+000	0.0000000E+000	-69.9647	0.0000000E+000	0.0000000E+000	0.0000000E+000	69.9647	0.364668	20.0353
0.0133776	1012.45	3488.31	3632.27	-73.8151	09/05/2018 16:04:14.8539	0.00348106	1.92104e-05	3410.58	3145.59	1	13	0.0216164	5.95121e-06	7.67394e-05	0.000264399	0.00027531	73.8151	3.14559e+06	912980	3.2754e+06	-16.1849	0.0000000E+000	0.0000000E+000	0.0000000E+000	16.1849	0.0000000E+000	0.0000000E+000	0.0000000E+000	-16.1849	0.0000000E+000	0.0000000E+000	0.0000000E+000	-73.8151	0.0000000E+000	0.0000000E+000	0.0000000E+000	73.8151	0.290241	16.1849
0.0100058	1073.49	4608.37	4731.75	-76.8871	09/05/2018 16:19:15.1253	0.00349028	2.74579e-06	3451.62	3273.96	1	14	0.0216166	4.56841e-06	4.79464e-05	0.000205828	0.000211338	76.8871	3.27396e+06	762650	3.36162e+06	-13.1129	0.0000000E+000	0.0000000E+000	0.0000000E+000	13.1129	0.0000000E+000	0.0000000E+000	0.0000000E+000	-13.1129	0.0000000E+000	0.0000000E+000	0.0000000E+000	-76.8871	0.0000000E+000	0.0000000E+000	0.0000000E+000	76.8871	0.232944	13.1129