File: exp data/single type/RM_stacked second run S3_2_C04.mpt
EC-Lab ASCII FILE
Nb header lines : 66

Potentio Electrochemical Impedance Spectroscopy

Run on channel : 4 (SN 13229)
User :
CE vs. WE compliance from -10 V to 10 V
Electrode connection : standard
Potential control : Ewe
Ewe ctrl range : min = -1.00 V, max = 1.00 V
Safety Limits :
	Do not start on E overload
Acquisition started on : 09/05/2018 13:40:36.000
Loaded Setting File : NONE
Saved on :
	File : RM_stacked second run S3_2_C04.mpr
	Directory : D:\Robert\Stacked cells\Second run 3% and 12% PVDF electrodes 12%compressed\
	Host : 10.5.5.6
Device : VMP3 (SN 0628)
Address : 10.5.5.5
EC-Lab for windows v11.17 (software)
Internet server v11.16 (firmware)
Command interpretor v11.16 (firmware)
Electrode material :
Initial state :
Electrolyte :
Comments :
Electrode surface area : 0.001 cm²
Characteristic mass : 0.001 g
Equivalent Weight : 0.000 g/eq.
Density : 0.000 g/cm3
Volume (V) : 0.000 m³
Text export
   Mode : Standard
   Time format : Elapsed
Cycle Definition : Charge/Discharge alternance
Mode                Single sine
E (V)               0.0000
vs.                 Eoc
tE (h:m:s)          0:00:3.0000
record              1
dI                  0.000
unit dI             mA
dt (s)              60.000
fi                  200.000
unit fi             kHz
ff                  10.000
unit ff             mHz
Nd                  8
Points              per decade
spacing             Logarithmic
Va (mV)             20.0
pw                  3.00
Na                  5
corr                0
E range min (V)     -1.000
E range max (V)     1.000
I Range             Auto
Bandwidth           5
nc cycles           0
goto Ns'            0
nr cycles           0
inc. cycle          0

freq/Hz	Re(Z)/Ohm	-Im(Z)/Ohm	|Z|/Ohm	Phase(Z)/deg	time/s	<Ewe>/V	<I>/mA	Cs/µF	Cp/µF	cycle number	I Range	|Ewe|/V	|I|/A	Re(Y)/Ohm-1	Im(Y)/Ohm-1	|Y|/Ohm-1	Phase(Y)/deg	Re(C)/nF	Im(C)/nF	|C|/nF	Phase(C)/deg	Re(M)	Im(M)	|M|	Phase(M)/deg	Re(Permittivity)	Im(Permittivity)	|Permittivity|	Phase(Permittivity)/deg	Re(Resistivity)/Ohm.cm	Im(Resistivity)/Ohm.cm	|Resistivity|/Ohm.cm	Phase(Resistivity)/deg	Re(Conductivity)/mS/cm	Im(Conductivity)/mS/cm	|Conductivity|/mS/cm	Phase(Conductivity)/deg	Tan(Delta)	Loss Angle(Delta)/deg
200019	149.095	-1.26002	149.1	0.484202	09/05/2018 13:40:41.3331	-0.000168335	0.00169671	-0.631497	-4.50993e-05	1	11	0.0186687	0.000125209	0.00670667	-5.6679e-05	0.00670691	-0.484202	-0.045099	5.33648	5.33667	-90.4842	0.0000000E+000	0.0000000E+000	0.0000000E+000	90.4842	0.0000000E+000	0.0000000E+000	0.0000000E+000	-90.4842	0.0000000E+000	0.0000000E+000	0.0000000E+000	0.484202	0.0000000E+000	0.0000000E+000	0.0000000E+000	-0.484202	118.327	89.5158
149678	148.28	-0.762284	148.282	0.294546	09/05/2018 13:40:42.3981	-0.000183014	0.00166874	-1.39491	-3.6864e-05	1	11	0.0206023	0.00013894	0.00674382	-3.46689e-05	0.00674391	-0.294546	-0.0368643	7.17082	7.17092	-90.2945	0.0000000E+000	0.0000000E+000	0.0000000E+000	90.2945	0.0000000E+000	0.0000000E+000	0.0000000E+000	-90.2945	0.0000000E+000	0.0000000E+000	0.0000000E+000	0.294546	0.0000000E+000	0.0000000E+000	0.0000000E+000	-0.294546	194.521	89.7055
112012	147.833	-0.288573	147.833	0.111843	09/05/2018 13:40:43.4631	-0.000169437	0.00170884	-4.9238	-1.87616e-05	1	11	0.0207639	0.000140455	0.00676438	-1.32043e-05	0.00676439	-0.111843	-0.018761	9.61135	9.61137	-90.1118	0.0000000E+000	0.0000000E+000	0.0000000E+000	90.1118	0.0000000E+000	0.0000000E+000	0.0000000E+000	-90.1118	0.0000000E+000	0.0000000E+000	0.0000000E+000	0.111843	0.0000000E+000	0.0000000E+000	0.0000000E+000	-0.111843	512.288	89.8882
83828.1	147.665	0.0592898	147.665	-0.0230051	09/05/2018 13:40:44.5281	-0.000169586	0.00169522	32.0221	5.16242e-06	1	11	0.0207077	0.000140234	0.00677207	2.71909e-06	0.00677207	0.0230051	0.00516186	12.8574	12.8574	-89.977	0.0000000E+000	0.0000000E+000	0.0000000E+000	89.977	0.0000000E+000	0.0000000E+000	0.0000000E+000	-89.977	0.0000000E+000	0.0000000E+000	0.0000000E+000	-0.0230051	0.0000000E+000	0.0000000E+000	0.0000000E+000	0.0230051	2490.57	89.977
62734.4	147.64	0.423344	147.64	-0.16429	09/05/2018 13:40:45.5931	-0.000156121	0.00174651	5.99268	4.92717e-05	1	11	0.0205997	0.000139526	0.00677318	1.94215e-05	0.00677321	0.16429	0.0492721	17.1833	17.1834	-89.8357	0.0000000E+000	0.0000000E+000	0.0000000E+000	89.8357	0.0000000E+000	0.0000000E+000	0.0000000E+000	-89.8357	0.0000000E+000	0.0000000E+000	0.0000000E+000	-0.16429	0.0000000E+000	0.0000000E+000	0.0000000E+000	0.16429	348.746	89.8357
46953.1	147.675	0.698605	147.677	-0.271047	09/05/2018 13:40:46.6581	-0.000152759	0.00173308	4.85204	0.000108583	1	11	0.020532	0.000139033	0.00677147	3.20337e-05	0.00677155	0.271047	0.108585	22.953	22.9532	-89.729	0.0000000E+000	0.0000000E+000	0.0000000E+000	89.729	0.0000000E+000	0.0000000E+000	0.0000000E+000	-89.729	0.0000000E+000	0.0000000E+000	0.0000000E+000	-0.271047	0.0000000E+000	0.0000000E+000	0.0000000E+000	0.271047	211.386	89.729
35136.7	147.829	0.978355	147.832	-0.379187	09/05/2018 13:40:47.7231	-0.000146951	0.00175061	4.6298	0.000202777	1	11	0.0204015	0.000138004	0.00676428	4.47671e-05	0.00676443	0.379187	0.202777	30.6394	30.6401	-89.6208	0.0000000E+000	0.0000000E+000	0.0000000E+000	89.6208	0.0000000E+000	0.0000000E+000	0.0000000E+000	-89.6208	0.0000000E+000	0.0000000E+000	0.0000000E+000	-0.379187	0.0000000E+000	0.0000000E+000	0.0000000E+000	0.379187	151.099	89.6208
26298.8	147.961	1.24367	147.966	-0.481585	09/05/2018 13:40:48.7871	-0.000144766	0.00176068	4.86606	0.00034377	1	11	0.0202612	0.000136932	0.00675808	5.68046e-05	0.00675832	0.481585	0.343768	40.8985	40.8999	-89.5184	0.0000000E+000	0.0000000E+000	0.0000000E+000	89.5184	0.0000000E+000	0.0000000E+000	0.0000000E+000	-89.5184	0.0000000E+000	0.0000000E+000	0.0000000E+000	-0.481585	0.0000000E+000	0.0000000E+000	0.0000000E+000	0.481585	118.971	89.5184
19677.7	148.188	1.47973	148.196	-0.572107	09/05/2018 13:40:49.7261	-0.00014669	0.00164897	5.4659	0.000544949	1	11	0.0219476	0.000148098	0.00674749	6.73769e-05	0.00674783	0.572107	0.544948	54.5742	54.5769	-89.4279	0.0000000E+000	0.0000000E+000	0.0000000E+000	89.4279	0.0000000E+000	0.0000000E+000	0.0000000E+000	-89.4279	0.0000000E+000	0.0000000E+000	0.0000000E+000	-0.572107	0.0000000E+000	0.0000000E+000	0.0000000E+000	0.572107	100.145	89.4279
14726.6	148.37	1.81203	148.381	-0.699712	09/05/2018 13:40:50.7911	-0.000144972	0.00169261	5.96423	0.000889459	1	11	0.0203886	0.000137407	0.0067389	8.23014e-05	0.0067394	0.699712	0.889462	72.8296	72.835	-89.3003	0.0000000E+000	0.0000000E+000	0.0000000E+000	89.3003	0.0000000E+000	0.0000000E+000	0.0000000E+000	-89.3003	0.0000000E+000	0.0000000E+000	0.0000000E+000	-0.699712	0.0000000E+000	0.0000000E+000	0.0000000E+000	0.699712	81.8807	89.3003
11025.4	148.708	2.13589	148.723	-0.822881	09/05/2018 13:40:51.7291	-0.000152834	0.00168758	6.75846	0.00139395	1	11	0.0210235	0.00014136	0.00672321	9.65652e-05	0.0067239	0.822881	1.39395	97.0516	97.0616	-89.1771	0.0000000E+000	0.0000000E+000	0.0000000E+000	89.1771	0.0000000E+000	0.0000000E+000	0.0000000E+000	-89.1771	0.0000000E+000	0.0000000E+000	0.0000000E+000	-0.822881	0.0000000E+000	0.0000000E+000	0.0000000E+000	0.822881	69.6235	89.1771
8325.19	149.068	2.43574	149.088	-0.936117	09/05/2018 13:40:52.8216	-0.000140882	0.00171219	7.84866	0.00209494	1	11	0.0213958	0.000143511	0.00670657	0.000109584	0.00670746	0.936117	2.09495	128.211	128.228	-89.0639	0.0000000E+000	0.0000000E+000	0.0000000E+000	89.0639	0.0000000E+000	0.0000000E+000	0.0000000E+000	-89.0639	0.0000000E+000	0.0000000E+000	0.0000000E+000	-0.936117	0.0000000E+000	0.0000000E+000	0.0000000E+000	0.936117	61.2003	89.0639
6195.49	149.42	2.84956	149.447	-1.09254	09/05/2018 13:40:54.2368	-0.000137184	0.00170175	9.015	0.00327752	1	11	0.0216205	0.00014467	0.0066901	0.000127585	0.00669131	1.09254	3.27752	171.861	171.892	-88.9075	0.0000000E+000	0.0000000E+000	0.0000000E+000	88.9075	0.0000000E+000	0.0000000E+000	0.0000000E+000	-88.9075	0.0000000E+000	0.0000000E+000	0.0000000E+000	-1.09254	0.0000000E+000	0.0000000E+000	0.0000000E+000	1.09254	52.4362	88.9075
4621.48	149.939	3.2325	149.974	-1.23504	09/05/2018 13:40:55.9247	-0.000141573	0.00175714	10.6537	0.00494935	1	11	0.0217521	0.000145039	0.00666629	0.000143717	0.00666784	1.23504	4.94936	229.575	229.628	-88.765	0.0000000E+000	0.0000000E+000	0.0000000E+000	88.765	0.0000000E+000	0.0000000E+000	0.0000000E+000	-88.765	0.0000000E+000	0.0000000E+000	0.0000000E+000	-1.23504	0.0000000E+000	0.0000000E+000	0.0000000E+000	1.23504	46.3848	88.765
3456.11	150.44	3.679	150.485	-1.40088	09/05/2018 13:40:57.6127	-0.000134569	0.00169541	12.5171	0.00748129	1	11	0.0218205	0.000145002	0.0066432	0.000162459	0.00664518	1.40088	7.4813	305.922	306.013	-88.5991	0.0000000E+000	0.0000000E+000	0.0000000E+000	88.5991	0.0000000E+000	0.0000000E+000	0.0000000E+000	-88.5991	0.0000000E+000	0.0000000E+000	0.0000000E+000	-1.40088	0.0000000E+000	0.0000000E+000	0.0000000E+000	1.40088	40.8916	88.5991
2585.83	151.082	4.18823	151.14	-1.58792	09/05/2018 13:40:59.3007	-0.000130349	0.00175882	14.6957	0.0112847	1	11	0.0218617	0.000144645	0.00661382	0.000183345	0.00661636	1.58792	11.2847	407.074	407.23	-88.4121	0.0000000E+000	0.0000000E+000	0.0000000E+000	88.4121	0.0000000E+000	0.0000000E+000	0.0000000E+000	-88.4121	0.0000000E+000	0.0000000E+000	0.0000000E+000	-1.58792	0.0000000E+000	0.0000000E+000	0.0000000E+000	1.58792	36.0731	88.4121
1935.62	151.787	4.77784	151.862	-1.80292	09/05/2018 13:41:00.9887	-0.000133299	0.00174222	17.2095	0.0170347	1	11	0.0218801	0.000144079	0.00658167	0.000207173	0.00658493	1.80292	17.0347	541.173	541.441	-88.1971	0.0000000E+000	0.0000000E+000	0.0000000E+000	88.1971	0.0000000E+000	0.0000000E+000	0.0000000E+000	-88.1971	0.0000000E+000	0.0000000E+000	0.0000000E+000	-1.80292	0.0000000E+000	0.0000000E+000	0.0000000E+000	1.80292	31.7689	88.1971
1448.61	152.527	5.43334	152.624	-2.04014	09/05/2018 13:41:02.6780	-0.000134849	0.00172189	20.221	0.0256266	1	11	0.0218868	0.000143403	0.0065479	0.00023325	0.00655205	2.04014	25.6266	719.401	719.857	-87.9599	0.0000000E+000	0.0000000E+000	0.0000000E+000	87.9599	0.0000000E+000	0.0000000E+000	0.0000000E+000	-87.9599	0.0000000E+000	0.0000000E+000	0.0000000E+000	-2.04014	0.0000000E+000	0.0000000E+000	0.0000000E+000	2.04014	28.0724	87.9599
1083.96	153.41	6.22289	153.536	-2.32285	09/05/2018 13:41:04.3670	-0.000133878	0.00173196	23.5947	0.0387593	1	11	0.021896	0.000142611	0.00650776	0.000263979	0.00651311	2.32285	38.7593	955.517	956.303	-87.6771	0.0000000E+000	0.0000000E+000	0.0000000E+000	87.6771	0.0000000E+000	0.0000000E+000	0.0000000E+000	-87.6771	0.0000000E+000	0.0000000E+000	0.0000000E+000	-2.32285	0.0000000E+000	0.0000000E+000	0.0000000E+000	2.32285	24.6526	87.6771
811.298	154.385	7.0992	154.548	-2.63283	09/05/2018 13:41:06.0534	-0.000134849	0.0016721	27.6332	0.0583074	1	11	0.0218982	0.000141692	0.00646366	0.000297224	0.00647049	2.63283	58.3075	1268	1269.34	-87.3672	0.0000000E+000	0.0000000E+000	0.0000000E+000	87.3672	0.0000000E+000	0.0000000E+000	0.0000000E+000	-87.3672	0.0000000E+000	0.0000000E+000	0.0000000E+000	-2.63283	0.0000000E+000	0.0000000E+000	0.0000000E+000	2.63283	21.7468	87.3672
607.527	155.507	8.09988	155.718	-2.98167	09/05/2018 13:41:07.7339	-0.000141778	0.00166669	32.3427	0.0875099	1	11	0.0219	0.000140639	0.00641318	0.000334043	0.00642188	2.98167	87.5098	1680.07	1682.35	-87.0183	0.0000000E+000	0.0000000E+000	0.0000000E+000	87.0183	0.0000000E+000	0.0000000E+000	0.0000000E+000	-87.0183	0.0000000E+000	0.0000000E+000	0.0000000E+000	-2.98167	0.0000000E+000	0.0000000E+000	0.0000000E+000	2.98167	19.1987	87.0183
454.564	156.763	9.30803	157.039	-3.39803	09/05/2018 13:41:09.4229	-0.000140882	0.00165662	37.6156	0.13215	1	11	0.0218986	0.000139447	0.00635665	0.000377435	0.00636784	3.39803	132.15	2225.63	2229.55	-86.602	0.0000000E+000	0.0000000E+000	0.0000000E+000	86.602	0.0000000E+000	0.0000000E+000	0.0000000E+000	-86.602	0.0000000E+000	0.0000000E+000	0.0000000E+000	-3.39803	0.0000000E+000	0.0000000E+000	0.0000000E+000	3.39803	16.8417	86.602
340.109	158.255	10.6823	158.616	-3.86161	09/05/2018 13:41:11.1097	-0.000140508	0.00167303	43.8066	0.198689	1	11	0.0219026	0.000138086	0.00629024	0.000424592	0.00630455	3.86161	198.689	2943.54	2950.23	-86.1384	0.0000000E+000	0.0000000E+000	0.0000000E+000	86.1384	0.0000000E+000	0.0000000E+000	0.0000000E+000	-86.1384	0.0000000E+000	0.0000000E+000	0.0000000E+000	-3.86161	0.0000000E+000	0.0000000E+000	0.0000000E+000	3.86161	14.8148	86.1384
254.43	159.903	12.3067	160.376	-4.40101	09/05/2018 13:41:12.8002	-0.000141367	0.00172767	50.8287	0.299305	1	11	0.0218998	0.000136553	0.00621695	0.000478478	0.00623533	4.40101	299.305	3888.92	3900.42	-85.599	0.0000000E+000	0.0000000E+000	0.0000000E+000	85.599	0.0000000E+000	0.0000000E+000	0.0000000E+000	-85.599	0.0000000E+000	0.0000000E+000	0.0000000E+000	-4.40101	0.0000000E+000	0.0000000E+000	0.0000000E+000	4.40101	12.9932	85.599
190.549	161.779	14.1392	162.395	-4.99487	09/05/2018 13:41:14.4812	-0.000137165	0.00169298	59.073	0.447808	1	11	0.021898	0.000134843	0.00613442	0.000536139	0.00615781	4.99487	447.808	5123.75	5143.28	-85.0051	0.0000000E+000	0.0000000E+000	0.0000000E+000	85.0051	0.0000000E+000	0.0000000E+000	0.0000000E+000	-85.0051	0.0000000E+000	0.0000000E+000	0.0000000E+000	-4.99487	0.0000000E+000	0.0000000E+000	0.0000000E+000	4.99487	11.4419	85.0051
142.492	164.038	16.3647	164.852	-5.69706	09/05/2018 13:41:16.1953	-0.000138995	0.00169224	68.253	0.672584	1	11	0.0218989	0.00013284	0.00603607	0.000602167	0.00606604	5.69706	672.584	6741.92	6775.39	-84.3029	0.0000000E+000	0.0000000E+000	0.0000000E+000	84.3029	0.0000000E+000	0.0000000E+000	0.0000000E+000	-84.3029	0.0000000E+000	0.0000000E+000	0.0000000E+000	-5.69706	0.0000000E+000	0.0000000E+000	0.0000000E+000	5.69706	10.0239	84.3029
106.673	166.594	18.8558	167.657	-6.4575	09/05/2018 13:41:17.8576	-0.000140359	0.00167527	79.1266	1.00084	1	11	0.0219009	0.000130629	0.0059267	0.000670809	0.00596454	6.4575	1000.84	8842.6	8899.06	-83.5425	0.0000000E+000	0.0000000E+000	0.0000000E+000	83.5425	0.0000000E+000	0.0000000E+000	0.0000000E+000	-83.5425	0.0000000E+000	0.0000000E+000	0.0000000E+000	-6.4575	0.0000000E+000	0.0000000E+000	0.0000000E+000	6.4575	8.83515	83.5425
79.8212	169.561	21.7547	170.95	-7.31112	09/05/2018 13:41:19.5482	-0.000136698	0.00165979	91.6536	1.48427	1	11	0.021897	0.00012809	0.00580209	0.000744409	0.00584965	7.31112	1484.27	11568.7	11663.6	-82.6889	0.0000000E+000	0.0000000E+000	0.0000000E+000	82.6889	0.0000000E+000	0.0000000E+000	0.0000000E+000	-82.6889	0.0000000E+000	0.0000000E+000	0.0000000E+000	-7.31112	0.0000000E+000	0.0000000E+000	0.0000000E+000	7.31112	7.79422	82.6889
59.7895	173.042	25.0877	174.851	-8.24928	09/05/2018 13:41:21.2425	-0.000142301	0.00164729	106.105	2.18433	1	11	0.0218957	0.000125224	0.00565997	0.000820583	0.00571914	8.24928	2184.33	15066.4	15223.9	-81.7507	0.0000000E+000	0.0000000E+000	0.0000000E+000	81.7507	0.0000000E+000	0.0000000E+000	0.0000000E+000	-81.7507	0.0000000E+000	0.0000000E+000	0.0000000E+000	-8.24928	0.0000000E+000	0.0000000E+000	0.0000000E+000	8.24928	6.89749	81.7507
44.728	177.025	28.9032	179.369	-9.27296	09/05/2018 13:41:22.9390	-0.000140751	0.00162678	123.11	3.19662	1	11	0.0218959	0.000122072	0.00550224	0.00089836	0.0055751	9.27296	3196.62	19578.5	19837.8	-80.727	0.0000000E+000	0.0000000E+000	0.0000000E+000	80.727	0.0000000E+000	0.0000000E+000	0.0000000E+000	-80.727	0.0000000E+000	0.0000000E+000	0.0000000E+000	-9.27296	0.0000000E+000	0.0000000E+000	0.0000000E+000	9.27296	6.12476	80.727
33.4276	181.681	33.3401	184.715	-10.3986	09/05/2018 13:41:24.9572	-0.000141601	8.67146e-05	142.807	4.6524	1	12	0.0219073	0.000118601	0.00532483	0.000977151	0.00541374	10.3986	4652.4	25352.5	25775.8	-79.6014	0.0000000E+000	0.0000000E+000	0.0000000E+000	79.6014	0.0000000E+000	0.0000000E+000	0.0000000E+000	-79.6014	0.0000000E+000	0.0000000E+000	0.0000000E+000	-10.3986	0.0000000E+000	0.0000000E+000	0.0000000E+000	10.3986	5.44934	79.6014
25.0401	186.975	38.3658	190.871	-11.5957	09/05/2018 13:41:26.6404	-0.000143272	0.000120073	165.669	6.69343	1	12	0.021905	0.000114763	0.00513221	0.00105309	0.00523914	11.5957	6693.43	32620.4	33300	-78.4043	0.0000000E+000	0.0000000E+000	0.0000000E+000	78.4043	0.0000000E+000	0.0000000E+000	0.0000000E+000	-78.4043	0.0000000E+000	0.0000000E+000	0.0000000E+000	-11.5957	0.0000000E+000	0.0000000E+000	0.0000000E+000	11.5957	4.8735	78.4043
18.735	193.144	44.153	198.127	-12.8766	09/05/2018 13:41:28.4343	-0.000146634	0.000124588	192.4	9.5552	1	12	0.021904	0.000110556	0.00492034	0.0011248	0.00504727	12.8766	9555.19	41798.6	42876.9	-77.1234	0.0000000E+000	0.0000000E+000	0.0000000E+000	77.1234	0.0000000E+000	0.0000000E+000	0.0000000E+000	-77.1234	0.0000000E+000	0.0000000E+000	0.0000000E+000	-12.8766	0.0000000E+000	0.0000000E+000	0.0000000E+000	12.8766	4.37444	77.1234
14.0176	200.219	50.7383	206.548	-14.2202	09/05/2018 13:41:30.2328	-0.000144421	9.80485e-05	223.774	13.5033	1	12	0.0219005	0.000106031	0.00469314	0.00118931	0.00484149	14.2202	13503.3	53285.5	54969.8	-75.7798	0.0000000E+000	0.0000000E+000	0.0000000E+000	75.7798	0.0000000E+000	0.0000000E+000	0.0000000E+000	-75.7798	0.0000000E+000	0.0000000E+000	0.0000000E+000	-14.2202	0.0000000E+000	0.0000000E+000	0.0000000E+000	14.2202	3.94611	75.7798
10.5007	208.332	58.2692	216.327	-15.626	09/05/2018 13:41:31.8452	-0.000140172	0.00011789	260.114	18.8721	1	12	0.0219002	0.000101237	0.00445177	0.00124514	0.00462263	15.626	18872.1	67474	70063.5	-74.374	0.0000000E+000	0.0000000E+000	0.0000000E+000	74.374	0.0000000E+000	0.0000000E+000	0.0000000E+000	-74.374	0.0000000E+000	0.0000000E+000	0.0000000E+000	-15.626	0.0000000E+000	0.0000000E+000	0.0000000E+000	15.626	3.57533	74.374
7.85965	217.629	66.8932	227.678	-17.086	09/05/2018 13:41:33.9642	-0.000139985	0.000132246	302.715	26.131	1	12	0.0218989	9.61838e-05	0.00419832	0.00129045	0.00439217	17.086	26131	85014.4	88939.7	-72.914	0.0000000E+000	0.0000000E+000	0.0000000E+000	72.914	0.0000000E+000	0.0000000E+000	0.0000000E+000	-72.914	0.0000000E+000	0.0000000E+000	0.0000000E+000	-17.086	0.0000000E+000	0.0000000E+000	0.0000000E+000	17.086	3.25338	72.914
5.88291	228.286	76.7075	240.829	-18.5731	09/05/2018 13:41:35.4147	-0.000148128	0.0001447	352.688	35.7806	1	12	0.0218987	9.09304e-05	0.00393606	0.00132257	0.00415232	18.5731	35780.6	106485	112336	-71.4269	0.0000000E+000	0.0000000E+000	0.0000000E+000	71.4269	0.0000000E+000	0.0000000E+000	0.0000000E+000	-71.4269	0.0000000E+000	0.0000000E+000	0.0000000E+000	-18.5731	0.0000000E+000	0.0000000E+000	0.0000000E+000	18.5731	2.97606	71.4269
4.39893	240.568	88.1111	256.196	-20.1159	09/05/2018 13:41:37.3211	-0.000144832	0.000134671	410.622	48.569	1	12	0.0218956	8.54642e-05	0.00366516	0.00134241	0.00390326	20.1159	48569	132607	141221	-69.8841	0.0000000E+000	0.0000000E+000	0.0000000E+000	69.8841	0.0000000E+000	0.0000000E+000	0.0000000E+000	-69.8841	0.0000000E+000	0.0000000E+000	0.0000000E+000	-20.1159	0.0000000E+000	0.0000000E+000	0.0000000E+000	20.1159	2.73028	69.8841
3.29363	254.493	101.099	273.839	-21.6658	09/05/2018 13:41:39.8314	-0.000136521	9.39249e-05	477.966	65.148	1	12	0.0218958	7.99585e-05	0.00339379	0.00134821	0.00365178	21.6658	65148	163995	176461	-68.3342	0.0000000E+000	0.0000000E+000	0.0000000E+000	68.3342	0.0000000E+000	0.0000000E+000	0.0000000E+000	-68.3342	0.0000000E+000	0.0000000E+000	0.0000000E+000	-21.6658	0.0000000E+000	0.0000000E+000	0.0000000E+000	21.6658	2.51727	68.3342
2.46607	270.45	116.04	294.293	-23.2222	09/05/2018 13:41:43.1554	-0.000141964	0.000141424	556.172	86.469	1	12	0.0218977	7.44078e-05	0.00312267	0.00133982	0.00339797	23.2222	86468.9	201531	219298	-66.7778	0.0000000E+000	0.0000000E+000	0.0000000E+000	66.7778	0.0000000E+000	0.0000000E+000	0.0000000E+000	-66.7778	0.0000000E+000	0.0000000E+000	0.0000000E+000	-23.2222	0.0000000E+000	0.0000000E+000	0.0000000E+000	23.2222	2.33067	66.7778
1.84257	288.864	133.497	318.22	-24.8038	09/05/2018 13:41:47.5717	-0.000134524	0.000152122	647.031	113.871	1	12	0.0218982	6.88148e-05	0.00285259	0.00131831	0.00314248	24.8038	113871	246397	271437	-65.1963	0.0000000E+000	0.0000000E+000	0.0000000E+000	65.1963	0.0000000E+000	0.0000000E+000	0.0000000E+000	-65.1963	0.0000000E+000	0.0000000E+000	0.0000000E+000	-24.8038	0.0000000E+000	0.0000000E+000	0.0000000E+000	24.8038	2.16383	65.1963
1.38128	309.832	153.342	345.702	-26.3317	09/05/2018 13:41:53.4371	-0.000139579	0.000161139	751.413	147.842	1	12	0.0218955	6.33364e-05	0.00259253	0.00128309	0.00289267	26.3317	147842	298719	333302	-63.6683	0.0000000E+000	0.0000000E+000	0.0000000E+000	63.6683	0.0000000E+000	0.0000000E+000	0.0000000E+000	-63.6683	0.0000000E+000	0.0000000E+000	0.0000000E+000	-26.3317	0.0000000E+000	0.0000000E+000	0.0000000E+000	26.3317	2.02053	63.6683
1.0334	334.421	175.911	377.865	-27.7451	09/05/2018 13:42:01.2529	-0.000137314	0.000134294	875.506	189.745	1	12	0.0218973	5.79501e-05	0.00234218	0.00123202	0.00264645	27.7451	189745	360721	407582	-62.2549	0.0000000E+000	0.0000000E+000	0.0000000E+000	62.2549	0.0000000E+000	0.0000000E+000	0.0000000E+000	-62.2549	0.0000000E+000	0.0000000E+000	0.0000000E+000	-27.7451	0.0000000E+000	0.0000000E+000	0.0000000E+000	27.7451	1.90108	62.2549
0.773208	362.324	200.579	414.139	-28.9685	09/05/2018 13:42:11.6748	-0.000137509	0.000133669	1026.21	240.723	1	12	0.0218979	5.28757e-05	0.00211254	0.00116948	0.00241465	28.9685	240723	434840	497024	-61.0315	0.0000000E+000	0.0000000E+000	0.0000000E+000	61.0315	0.0000000E+000	0.0000000E+000	0.0000000E+000	-61.0315	0.0000000E+000	0.0000000E+000	0.0000000E+000	-28.9685	0.0000000E+000	0.0000000E+000	0.0000000E+000	28.9685	1.80639	61.0315
0.578532	392.34	227.194	453.373	-30.074	09/05/2018 13:42:27.3500	-0.000133511	9.15397e-06	1210.87	304.072	1	13	0.0218954	4.82944e-05	0.00190875	0.00110531	0.00220569	30.074	304072	525101	606787	-59.926	0.0000000E+000	0.0000000E+000	0.0000000E+000	59.926	0.0000000E+000	0.0000000E+000	0.0000000E+000	-59.926	0.0000000E+000	0.0000000E+000	0.0000000E+000	-30.074	0.0000000E+000	0.0000000E+000	0.0000000E+000	30.074	1.72689	59.926
0.433065	421.62	257.681	494.129	-31.432	09/05/2018 13:42:45.8994	-0.00013346	-3.7919e-05	1426.21	387.855	1	13	0.0218957	4.43116e-05	0.0017268	0.00105536	0.00202376	31.432	387855	634611	743749	-58.568	0.0000000E+000	0.0000000E+000	0.0000000E+000	58.568	0.0000000E+000	0.0000000E+000	0.0000000E+000	-58.568	0.0000000E+000	0.0000000E+000	0.0000000E+000	-31.432	0.0000000E+000	0.0000000E+000	0.0000000E+000	31.432	1.63621	58.568
0.323901	447.581	295.748	536.465	-33.4555	09/05/2018 13:43:10.6777	-0.000132974	8.63895e-06	1661.44	504.947	1	13	0.021895	4.08134e-05	0.00155521	0.00102763	0.00186405	33.4555	504947	764179	915937	-56.5445	0.0000000E+000	0.0000000E+000	0.0000000E+000	56.5445	0.0000000E+000	0.0000000E+000	0.0000000E+000	-56.5445	0.0000000E+000	0.0000000E+000	0.0000000E+000	-33.4555	0.0000000E+000	0.0000000E+000	0.0000000E+000	33.4555	1.51339	56.5445
0.242323	469.647	347.409	584.176	-36.4912	09/05/2018 13:43:43.7766	-0.000130097	1.78409e-05	1890.53	668.619	1	13	0.0218958	3.74815e-05	0.00137621	0.00101801	0.00171181	36.4912	668619	903878	1.1243e+06	-53.5088	0.0000000E+000	0.0000000E+000	0.0000000E+000	53.5088	0.0000000E+000	0.0000000E+000	0.0000000E+000	-53.5088	0.0000000E+000	0.0000000E+000	0.0000000E+000	-36.4912	0.0000000E+000	0.0000000E+000	0.0000000E+000	36.4912	1.35186	53.5088
0.181534	487.85	419.505	643.414	-40.6924	09/05/2018 13:44:27.9382	-0.000130918	2.25181e-05	2089.9	888.419	1	13	0.0218963	3.40314e-05	0.00117843	0.00101334	0.00155421	40.6924	888419	1.03316e+06	1.36261e+06	-49.3076	0.0000000E+000	0.0000000E+000	0.0000000E+000	49.3076	0.0000000E+000	0.0000000E+000	0.0000000E+000	-49.3076	0.0000000E+000	0.0000000E+000	0.0000000E+000	-40.6924	0.0000000E+000	0.0000000E+000	0.0000000E+000	40.6924	1.16292	49.3076
0.135846	503.717	520.659	724.442	-45.9476	09/05/2018 13:45:26.9315	-0.000132181	2.72653e-05	2250.19	1162.3	1	13	0.021896	3.02246e-05	0.000959796	0.000992079	0.00138037	45.9476	1.1623e+06	1.12448e+06	1.61722e+06	-44.0524	0.0000000E+000	0.0000000E+000	0.0000000E+000	44.0524	0.0000000E+000	0.0000000E+000	0.0000000E+000	-44.0524	0.0000000E+000	0.0000000E+000	0.0000000E+000	-45.9476	0.0000000E+000	0.0000000E+000	0.0000000E+000	45.9476	0.967459	44.0524
0.101725	518.444	659.986	839.265	-51.849	09/05/2018 13:46:45.6906	-0.000133424	2.9496e-05	2370.59	1465.98	1	13	0.0218964	2.60899e-05	0.000736043	0.000936993	0.00119152	51.849	1.46598e+06	1.15158e+06	1.8642e+06	-38.151	0.0000000E+000	0.0000000E+000	0.0000000E+000	38.151	0.0000000E+000	0.0000000E+000	0.0000000E+000	-38.151	0.0000000E+000	0.0000000E+000	0.0000000E+000	-51.849	0.0000000E+000	0.0000000E+000	0.0000000E+000	51.849	0.785537	38.151
0.0761037	533.931	850.378	1004.1	-57.8763	09/05/2018 13:48:30.9468	-0.000132401	2.30695e-05	2459.25	1763.88	1	13	0.0218962	2.18067e-05	0.000529576	0.000843441	0.000995913	57.8763	1.76388e+06	1.1075e+06	2.08274e+06	-32.1237	0.0000000E+000	0.0000000E+000	0.0000000E+000	32.1237	0.0000000E+000	0.0000000E+000	0.0000000E+000	-32.1237	0.0000000E+000	0.0000000E+000	0.0000000E+000	-57.8763	0.0000000E+000	0.0000000E+000	0.0000000E+000	57.8763	0.627875	32.1237
0.0569665	550.701	1105.24	1234.84	-63.5146	09/05/2018 13:50:51.5410	-0.000121842	2.33811e-05	2527.8	2025.05	1	13	0.0218925	1.7729e-05	0.000361155	0.000724829	0.000809821	63.5146	2.02505e+06	1.00901e+06	2.26251e+06	-26.4854	0.0000000E+000	0.0000000E+000	0.0000000E+000	26.4854	0.0000000E+000	0.0000000E+000	0.0000000E+000	-26.4854	0.0000000E+000	0.0000000E+000	0.0000000E+000	-63.5146	0.0000000E+000	0.0000000E+000	0.0000000E+000	63.5146	0.498263	26.4854
0.0426446	572.767	1448.08	1557.24	-68.4195	09/05/2018 13:53:59.3317	-0.000125037	4.22164e-05	2577.29	2228.62	1	13	0.0218955	1.40604e-05	0.000236192	0.000597146	0.000642161	68.4195	2.22862e+06	881498	2.39662e+06	-21.5805	0.0000000E+000	0.0000000E+000	0.0000000E+000	21.5805	0.0000000E+000	0.0000000E+000	0.0000000E+000	-21.5805	0.0000000E+000	0.0000000E+000	0.0000000E+000	-68.4195	0.0000000E+000	0.0000000E+000	0.0000000E+000	68.4195	0.395535	21.5805
0.0319138	600.053	1903.37	1995.71	-72.5021	09/05/2018 13:58:10.2454	-0.000130163	3.40137e-05	2620.11	2383.24	1	13	0.0218947	1.09709e-05	0.000150658	0.000477888	0.000501074	72.5021	2.38324e+06	751337	2.49887e+06	-17.4979	0.0000000E+000	0.0000000E+000	0.0000000E+000	17.4979	0.0000000E+000	0.0000000E+000	0.0000000E+000	-17.4979	0.0000000E+000	0.0000000E+000	0.0000000E+000	-72.5021	0.0000000E+000	0.0000000E+000	0.0000000E+000	72.5021	0.315259	17.4979
0.0238768	636.605	2511.91	2591.32	-75.7787	09/05/2018 14:03:45.5967	-0.000130653	2.31065e-05	2653.63	2493.47	1	13	0.0218954	8.44953e-06	9.48043e-05	0.000374077	0.000385904	75.7787	2.49347e+06	631934	2.57231e+06	-14.2213	0.0000000E+000	0.0000000E+000	0.0000000E+000	14.2213	0.0000000E+000	0.0000000E+000	0.0000000E+000	-14.2213	0.0000000E+000	0.0000000E+000	0.0000000E+000	-75.7787	0.0000000E+000	0.0000000E+000	0.0000000E+000	75.7787	0.253435	14.2213
0.0178412	684.939	3323.01	3392.87	-78.3533	09/05/2018 14:11:14.3766	-0.000129098	2.54925e-05	2684.51	2575.11	1	13	0.0218951	6.45327e-06	5.95003e-05	0.000288668	0.000294736	78.3533	2.57511e+06	530782	2.62924e+06	-11.6467	0.0000000E+000	0.0000000E+000	0.0000000E+000	11.6467	0.0000000E+000	0.0000000E+000	0.0000000E+000	-11.6467	0.0000000E+000	0.0000000E+000	0.0000000E+000	-78.3533	0.0000000E+000	0.0000000E+000	0.0000000E+000	78.3533	0.20612	11.6467
0.0133776	748.746	4378.31	4441.87	-80.2956	09/05/2018 14:22:27.7627	-0.000132082	4.00923e-06	2717.29	2640.08	1	14	0.0218955	4.92933e-06	3.79492e-05	0.000221909	0.00022513	80.2956	2.64008e+06	451487	2.67841e+06	-9.70442	0.0000000E+000	0.0000000E+000	0.0000000E+000	9.70442	0.0000000E+000	0.0000000E+000	0.0000000E+000	-9.70442	0.0000000E+000	0.0000000E+000	0.0000000E+000	-80.2956	0.0000000E+000	0.0000000E+000	0.0000000E+000	80.2956	0.171013	9.70442
0.0100058	835.012	5789.6	5849.5	-81.793	09/05/2018 14:35:47.9291	-0.000134467	2.07965e-06	2747.4	2691.41	1	14	0.0218949	3.74304e-06	2.44036e-05	0.000169204	0.000170955	81.793	2.69141e+06	388172	2.71926e+06	-8.20696	0.0000000E+000	0.0000000E+000	0.0000000E+000	8.20696	0.0000000E+000	0.0000000E+000	0.0000000E+000	-8.20696	0.0000000E+000	0.0000000E+000	0.0000000E+000	-81.793	0.0000000E+000	0.0000000E+000	0.0000000E+000	81.793	0.144226	8.20697